Sure,OptionOne,OptionTwo,Risk,Risk2,AmbiguityBarH,Ambiguity,SureXPos,RiskXPos,OptionOneXPos,OptionTwoXPos,RiskX,trials.thisRepN,trials.thisTrialN,trials.thisN,trials.thisIndex,instruct_text_1.started,instruct_text_1.stopped,instruct_text_2.started,instruct_text_2.stopped,instruct_text_3.started,instruct_text_3.stopped,instruct_text_4.started,instruct_text_4.stopped,tut_sure.started,tut_sure.stopped,Tutbackdrop.started,Tutbackdrop.stopped,instruct_text_5.started,instruct_text_5.stopped,instruct_text_6.started,instruct_text_6.stopped,Tutbackdrop_2.started,Tutbackdrop_2.stopped,instruct_text_7.started,instruct_text_7.stopped,instruct_text_8.started,instruct_text_8.stopped,TutArrowTop.started,TutArrowTop.stopped,TutArrowBottom.started,TutArrowBottom.stopped,Tutbackdrop_3.started,Tutbackdrop_3.stopped,instruct_text_9.started,instruct_text_9.stopped,instruct_text_10.started,instruct_text_10.stopped,TutArrowTop_2.started,TutArrowTop_2.stopped,TutArrowBottom_2.started,TutArrowBottom_2.stopped,Tutbackdrop_5.started,Tutbackdrop_5.stopped,instruct_text_11.started,instruct_text_11.stopped,instruct_text_12.started,instruct_text_12.stopped,TutArrowTop_3.started,TutArrowTop_3.stopped,instruct_text_13.started,instruct_text_13.stopped,instruct_text_14.started,instruct_text_14.stopped,key_resp.keys,key_resp.rt,key_resp.started,key_resp.stopped,Red_Square.started,Red_Square.stopped,Blue_Square.started,Blue_Square.stopped,sure.started,sure.stopped,or_text.started,or_text.stopped,Option_One.started,Option_One.stopped,Option_Two.started,Option_Two.stopped,Risk_Text_Top.started,Risk_Text_Top.stopped,Risk_Text_Bottom.started,Risk_Text_Bottom.stopped,Ambiguity_Bar.started,Ambiguity_Bar.stopped,endscreen_text.started,endscreen_text.stopped,finalscore_text.started,finalscore_text.stopped,participant,session,date,expName,psychopyVersion,frameRate,
5,5,0,75,25,0.0,0,-0.5,0.5,0.5,0.5,0.5,0,0,0,4,20.149111000006087,None,20.149111000006087,None,32.72295890003443,None,32.72295890003443,None,32.72295890003443,None,40.21076170000015,None,40.21076170000015,None,40.21076170000015,None,45.22645560000092,None,45.22645560000092,None,45.22645560000092,None,45.22645560000092,None,45.22645560000092,None,52.17479010001989,None,52.17479010001989,None,52.17479010001989,None,52.17479010001989,None,52.17479010001989,None,56.65416149998782,None,56.65416149998782,None,56.65416149998782,None,56.65416149998782,None,63.97400350001408,None,63.97400350001408,None,left,4.728704899956938,69.31313680001767,None,69.31313680001767,None,69.31313680001767,None,69.31313680001767,None,69.31313680001767,None,69.31313680001767,None,69.31313680001767,None,69.31313680001767,None,69.31313680001767,None,69.31313680001767,None,,,,,,001,2020_Apr_12_1941,Tymula Experiment,3.2.3,59.55223861588745,
-20,-20,0,25,75,0.0,0,-0.5,0.5,0.5,0.5,0.5,0,1,1,89,,,,,,,,,,,,,,,,,,,,,,,,,,,,,,,,,,,,,,,,,,,,,,,,,right,1.500254699960351,74.27460689999862,None,74.27460689999862,None,74.27460689999862,None,74.27460689999862,None,74.27460689999862,None,74.27460689999862,None,74.27460689999862,None,74.27460689999862,None,74.27460689999862,None,74.27460689999862,None,,,,,,001,2020_Apr_12_1941,Tymula Experiment,3.2.3,59.55223861588745,
-8,-8,0,50,50,0.156,24,0.5,-0.5,-0.5,-0.5,-0.5,0,2,2,61,,,,,,,,,,,,,,,,,,,,,,,,,,,,,,,,,,,,,,,,,,,,,,,,,left,6.4501849000225775,75.90341080003418,None,75.90341080003418,None,75.90341080003418,None,75.90341080003418,None,75.90341080003418,None,75.90341080003418,None,75.90341080003418,None,75.90341080003418,None,75.90341080003418,None,75.90341080003418,None,,,,,,001,2020_Apr_12_1941,Tymula Experiment,3.2.3,59.55223861588745,
-5,-5,0,50,50,0.0,0,-0.5,0.5,0.5,0.5,0.5,0,3,3,27,,,,,,,,,,,,,,,,,,,,,,,,,,,,,,,,,,,,,,,,,,,,,,,,,right,3.550895699998364,82.44314739998663,None,82.44314739998663,None,82.44314739998663,None,82.44314739998663,None,82.44314739998663,None,82.44314739998663,None,82.44314739998663,None,82.44314739998663,None,82.44314739998663,None,82.44314739998663,None,,,,,,001,2020_Apr_12_1941,Tymula Experiment,3.2.3,59.55223861588745,
50,50,0,50,50,0.0,0,-0.5,0.5,0.5,0.5,0.5,0,4,4,107,,,,,,,,,,,,,,,,,,,,,,,,,,,,,,,,,,,,,,,,,,,,,,,,,left,4.779137899982743,86.09042850002879,None,86.09042850002879,None,86.09042850002879,None,86.09042850002879,None,86.09042850002879,None,86.09042850002879,None,86.09042850002879,None,86.09042850002879,None,86.09042850002879,None,86.09042850002879,None,,,,,,001,2020_Apr_12_1941,Tymula Experiment,3.2.3,59.55223861588745,
-50,-50,0,50,50,0.0,0,0.5,-0.5,-0.5,-0.5,-0.5,0,5,5,115,,,,,,,,,,,,,,,,,,,,,,,,,,,,,,,,,,,,,,,,,,,,,,,,,right,3.5684777999995276,90.96216370002367,None,90.96216370002367,None,90.96216370002367,None,90.96216370002367,None,90.96216370002367,None,90.96216370002367,None,90.96216370002367,None,90.96216370002367,None,90.96216370002367,None,90.96216370002367,None,,,,,,001,2020_Apr_12_1941,Tymula Experiment,3.2.3,59.55223861588745,
20,20,0,25,75,0.0,0,0.5,-0.5,-0.5,-0.5,-0.5,0,6,6,65,,,,,,,,,,,,,,,,,,,,,,,,,,,,,,,,,,,,,,,,,,,,,,,,,right,1.01876289997017,94.62437010003487,None,94.62437010003487,None,94.62437010003487,None,94.62437010003487,None,94.62437010003487,None,94.62437010003487,None,94.62437010003487,None,94.62437010003487,None,94.62437010003487,None,94.62437010003487,None,,,,,,001,2020_Apr_12_1941,Tymula Experiment,3.2.3,59.55223861588745,
125,125,0,50,50,0.481,74,0.5,-0.5,-0.5,-0.5,-0.5,0,7,7,143,,,,,,,,,,,,,,,,,,,,,,,,,,,,,,,,,,,,,,,,,,,,,,,,,right,7.356825599970762,95.78344690002268,None,95.78344690002268,None,95.78344690002268,None,95.78344690002268,None,95.78344690002268,None,95.78344690002268,None,95.78344690002268,None,95.78344690002268,None,95.78344690002268,None,95.78344690002268,None,,,,,,001,2020_Apr_12_1941,Tymula Experiment,3.2.3,59.55223861588745,
-5,-5,0,75,25,0.0,0,-0.5,0.5,0.5,0.5,0.5,0,8,8,28,,,,,,,,,,,,,,,,,,,,,,,,,,,,,,,,,,,,,,,,,,,,,,,,,left,1.9883493999950588,103.23464540002169,None,103.23464540002169,None,103.23464540002169,None,103.23464540002169,None,103.23464540002169,None,103.23464540002169,None,103.23464540002169,None,103.23464540002169,None,103.23464540002169,None,103.23464540002169,None,,,,,,001,2020_Apr_12_1941,Tymula Experiment,3.2.3,59.55223861588745,
125,125,0,50,50,0.325,50,-0.5,0.5,0.5,0.5,0.5,0,9,9,142,,,,,,,,,,,,,,,,,,,,,,,,,,,,,,,,,,,,,,,,,,,,,,,,,right,0.8543284999905154,105.31121170002734,None,105.31121170002734,None,105.31121170002734,None,105.31121170002734,None,105.31121170002734,None,105.31121170002734,None,105.31121170002734,None,105.31121170002734,None,105.31121170002734,None,105.31121170002734,None,,,,,,001,2020_Apr_12_1941,Tymula Experiment,3.2.3,59.55223861588745,
-20,-20,0,50,50,0.156,24,0.5,-0.5,-0.5,-0.5,-0.5,0,10,10,93,,,,,,,,,,,,,,,,,,,,,,,,,,,,,,,,,,,,,,,,,,,,,,,,,left,0.8202863000333309,106.26291009999113,None,106.26291009999113,None,106.26291009999113,None,106.26291009999113,None,106.26291009999113,None,106.26291009999113,None,106.26291009999113,None,106.26291009999113,None,106.26291009999113,None,106.26291009999113,None,,,,,,001,2020_Apr_12_1941,Tymula Experiment,3.2.3,59.55223861588745,
-5,-5,0,50,50,0.0,0,0.5,-0.5,-0.5,-0.5,-0.5,0,11,11,19,,,,,,,,,,,,,,,,,,,,,,,,,,,,,,,,,,,,,,,,,,,,,,,,,right,0.39713430003030226,107.17381710000336,None,107.17381710000336,None,107.17381710000336,None,107.17381710000336,None,107.17381710000336,None,107.17381710000336,None,107.17381710000336,None,107.17381710000336,None,107.17381710000336,None,107.17381710000336,None,,,,,,001,2020_Apr_12_1941,Tymula Experiment,3.2.3,59.55223861588745,
-125,-125,0,75,25,0.0,0,-0.5,0.5,0.5,0.5,0.5,0,12,12,148,,,,,,,,,,,,,,,,,,,,,,,,,,,,,,,,,,,,,,,,,,,,,,,,,left,0.6513782000401989,107.6545111000305,None,107.6545111000305,None,107.6545111000305,None,107.6545111000305,None,107.6545111000305,None,107.6545111000305,None,107.6545111000305,None,107.6545111000305,None,107.6545111000305,None,107.6545111000305,None,,,,,,001,2020_Apr_12_1941,Tymula Experiment,3.2.3,59.55223861588745,
5,5,0,50,50,0.0,0,0.5,-0.5,-0.5,-0.5,-0.5,0,13,13,3,,,,,,,,,,,,,,,,,,,,,,,,,,,,,,,,,,,,,,,,,,,,,,,,,right,0.44850569998379797,108.3854277000064,None,108.3854277000064,None,108.3854277000064,None,108.3854277000064,None,108.3854277000064,None,108.3854277000064,None,108.3854277000064,None,108.3854277000064,None,108.3854277000064,None,108.3854277000064,None,,,,,,001,2020_Apr_12_1941,Tymula Experiment,3.2.3,59.55223861588745,
8,8,0,50,50,0.156,24,-0.5,0.5,0.5,0.5,0.5,0,14,14,37,,,,,,,,,,,,,,,,,,,,,,,,,,,,,,,,,,,,,,,,,,,,,,,,,left,0.5158454999909736,108.92161210003542,None,108.92161210003542,None,108.92161210003542,None,108.92161210003542,None,108.92161210003542,None,108.92161210003542,None,108.92161210003542,None,108.92161210003542,None,108.92161210003542,None,108.92161210003542,None,,,,,,001,2020_Apr_12_1941,Tymula Experiment,3.2.3,59.55223861588745,
125,125,0,75,25,0.0,0,-0.5,0.5,0.5,0.5,0.5,0,15,15,140,,,,,,,,,,,,,,,,,,,,,,,,,,,,,,,,,,,,,,,,,,,,,,,,,right,0.5217397000524215,109.53976379998494,None,109.53976379998494,None,109.53976379998494,None,109.53976379998494,None,109.53976379998494,None,109.53976379998494,None,109.53976379998494,None,109.53976379998494,None,109.53976379998494,None,109.53976379998494,None,,,,,,001,2020_Apr_12_1941,Tymula Experiment,3.2.3,59.55223861588745,
50,50,0,25,75,0.0,0,0.5,-0.5,-0.5,-0.5,-0.5,0,16,16,97,,,,,,,,,,,,,,,,,,,,,,,,,,,,,,,,,,,,,,,,,,,,,,,,,left,0.5291111000115052,110.14432070002658,None,110.14432070002658,None,110.14432070002658,None,110.14432070002658,None,110.14432070002658,None,110.14432070002658,None,110.14432070002658,None,110.14432070002658,None,110.14432070002658,None,110.14432070002658,None,,,,,,001,2020_Apr_12_1941,Tymula Experiment,3.2.3,59.55223861588745,
20,20,0,50,50,0.481,74,0.5,-0.5,-0.5,-0.5,-0.5,0,17,17,79,,,,,,,,,,,,,,,,,,,,,,,,,,,,,,,,,,,,,,,,,,,,,,,,,right,0.4495037999586202,110.75118309998652,None,110.75118309998652,None,110.75118309998652,None,110.75118309998652,None,110.75118309998652,None,110.75118309998652,None,110.75118309998652,None,110.75118309998652,None,110.75118309998652,None,110.75118309998652,None,,,,,,001,2020_Apr_12_1941,Tymula Experiment,3.2.3,59.55223861588745,
-5,-5,0,50,50,0.325,50,0.5,-0.5,-0.5,-0.5,-0.5,0,18,18,22,,,,,,,,,,,,,,,,,,,,,,,,,,,,,,,,,,,,,,,,,,,,,,,,,left,0.5281245000078343,111.292220000003,None,111.292220000003,None,111.292220000003,None,111.292220000003,None,111.292220000003,None,111.292220000003,None,111.292220000003,None,111.292220000003,None,111.292220000003,None,111.292220000003,None,,,,,,001,2020_Apr_12_1941,Tymula Experiment,3.2.3,59.55223861588745,
50,50,0,38,62,0.0,0,-0.5,0.5,0.5,0.5,0.5,0,19,19,98,,,,,,,,,,,,,,,,,,,,,,,,,,,,,,,,,,,,,,,,,,,,,,,,,right,0.5239171999855898,111.93731110001681,None,111.93731110001681,None,111.93731110001681,None,111.93731110001681,None,111.93731110001681,None,111.93731110001681,None,111.93731110001681,None,111.93731110001681,None,111.93731110001681,None,111.93731110001681,None,,,,,,001,2020_Apr_12_1941,Tymula Experiment,3.2.3,59.55223861588745,
-5,-5,0,50,50,0.325,50,-0.5,0.5,0.5,0.5,0.5,0,20,20,30,,,,,,,,,,,,,,,,,,,,,,,,,,,,,,,,,,,,,,,,,,,,,,,,,right,0.9143137999926694,112.56165779998992,None,112.56165779998992,None,112.56165779998992,None,112.56165779998992,None,112.56165779998992,None,112.56165779998992,None,112.56165779998992,None,112.56165779998992,None,112.56165779998992,None,112.56165779998992,None,,,,,,001,2020_Apr_12_1941,Tymula Experiment,3.2.3,59.55223861588745,
5,5,0,38,62,0.0,0,-0.5,0.5,0.5,0.5,0.5,0,21,21,2,,,,,,,,,,,,,,,,,,,,,,,,,,,,,,,,,,,,,,,,,,,,,,,,,right,7.9296295999665745,113.57308120001107,None,113.57308120001107,None,113.57308120001107,None,113.57308120001107,None,113.57308120001107,None,113.57308120001107,None,113.57308120001107,None,113.57308120001107,None,113.57308120001107,None,113.57308120001107,None,,,,,,001,2020_Apr_12_1941,Tymula Experiment,3.2.3,59.55223861588745,
8,8,0,25,75,0.0,0,-0.5,0.5,0.5,0.5,0.5,0,22,22,41,,,,,,,,,,,,,,,,,,,,,,,,,,,,,,,,,,,,,,,,,,,,,,,,,right,1.1459474000148475,121.59807419998106,None,121.59807419998106,None,121.59807419998106,None,121.59807419998106,None,121.59807419998106,None,121.59807419998106,None,121.59807419998106,None,121.59807419998106,None,121.59807419998106,None,121.59807419998106,None,,,,,,001,2020_Apr_12_1941,Tymula Experiment,3.2.3,59.55223861588745,
-50,-50,0,50,50,0.481,74,0.5,-0.5,-0.5,-0.5,-0.5,0,23,23,127,,,,,,,,,,,,,,,,,,,,,,,,,,,,,,,,,,,,,,,,,,,,,,,,,left,1.839579599967692,122.84560360002797,None,122.84560360002797,None,122.84560360002797,None,122.84560360002797,None,122.84560360002797,None,122.84560360002797,None,122.84560360002797,None,122.84560360002797,None,122.84560360002797,None,122.84560360002797,None,,,,,,001,2020_Apr_12_1941,Tymula Experiment,3.2.3,59.55223861588745,
-20,-20,0,50,50,0.481,74,-0.5,0.5,0.5,0.5,0.5,0,24,24,87,,,,,,,,,,,,,,,,,,,,,,,,,,,,,,,,,,,,,,,,,,,,,,,,,right,4.850704200041946,124.79033839999465,None,124.79033839999465,None,124.79033839999465,None,124.79033839999465,None,124.79033839999465,None,124.79033839999465,None,124.79033839999465,None,124.79033839999465,None,124.79033839999465,None,124.79033839999465,None,,,,,,001,2020_Apr_12_1941,Tymula Experiment,3.2.3,59.55223861588745,
20,20,0,50,50,0.325,50,-0.5,0.5,0.5,0.5,0.5,0,25,25,78,,,,,,,,,,,,,,,,,,,,,,,,,,,,,,,,,,,,,,,,,,,,,,,,,left,1.1182348000002094,129.74234400002751,None,129.74234400002751,None,129.74234400002751,None,129.74234400002751,None,129.74234400002751,None,129.74234400002751,None,129.74234400002751,None,129.74234400002751,None,129.74234400002751,None,129.74234400002751,None,,,,,,001,2020_Apr_12_1941,Tymula Experiment,3.2.3,59.55223861588745,
20,20,0,50,50,0.156,24,0.5,-0.5,-0.5,-0.5,-0.5,0,26,26,77,,,,,,,,,,,,,,,,,,,,,,,,,,,,,,,,,,,,,,,,,,,,,,,,,right,0.7491544000222348,130.94709450000664,None,130.94709450000664,None,130.94709450000664,None,130.94709450000664,None,130.94709450000664,None,130.94709450000664,None,130.94709450000664,None,130.94709450000664,None,130.94709450000664,None,130.94709450000664,None,,,,,,001,2020_Apr_12_1941,Tymula Experiment,3.2.3,59.55223861588745,
20,20,0,38,62,0.0,0,0.5,-0.5,-0.5,-0.5,-0.5,0,27,27,74,,,,,,,,,,,,,,,,,,,,,,,,,,,,,,,,,,,,,,,,,,,,,,,,,right,0.4542894999613054,131.79682019999018,None,131.79682019999018,None,131.79682019999018,None,131.79682019999018,None,131.79682019999018,None,131.79682019999018,None,131.79682019999018,None,131.79682019999018,None,131.79682019999018,None,131.79682019999018,None,,,,,,001,2020_Apr_12_1941,Tymula Experiment,3.2.3,59.55223861588745,
-20,-20,0,38,62,0.0,0,-0.5,0.5,0.5,0.5,0.5,0,28,28,82,,,,,,,,,,,,,,,,,,,,,,,,,,,,,,,,,,,,,,,,,,,,,,,,,left,0.5925610999693163,132.35216449998552,None,132.35216449998552,None,132.35216449998552,None,132.35216449998552,None,132.35216449998552,None,132.35216449998552,None,132.35216449998552,None,132.35216449998552,None,132.35216449998552,None,132.35216449998552,None,,,,,,001,2020_Apr_12_1941,Tymula Experiment,3.2.3,59.55223861588745,
-125,-125,0,50,50,0.0,0,0.5,-0.5,-0.5,-0.5,-0.5,0,29,29,147,,,,,,,,,,,,,,,,,,,,,,,,,,,,,,,,,,,,,,,,,,,,,,,,,right,0.42002530000172555,133.05222070001764,None,133.05222070001764,None,133.05222070001764,None,133.05222070001764,None,133.05222070001764,None,133.05222070001764,None,133.05222070001764,None,133.05222070001764,None,133.05222070001764,None,133.05222070001764,None,,,,,,001,2020_Apr_12_1941,Tymula Experiment,3.2.3,59.55223861588745,
8,8,0,50,50,0.156,24,0.5,-0.5,-0.5,-0.5,-0.5,0,30,30,45,,,,,,,,,,,,,,,,,,,,,,,,,,,,,,,,,,,,,,,,,,,,,,,,,left,0.43248489999677986,133.56372570001986,None,133.56372570001986,None,133.56372570001986,None,133.56372570001986,None,133.56372570001986,None,133.56372570001986,None,133.56372570001986,None,133.56372570001986,None,133.56372570001986,None,133.56372570001986,None,,,,,,001,2020_Apr_12_1941,Tymula Experiment,3.2.3,59.55223861588745,
125,125,0,50,50,0.481,74,-0.5,0.5,0.5,0.5,0.5,0,31,31,135,,,,,,,,,,,,,,,,,,,,,,,,,,,,,,,,,,,,,,,,,,,,,,,,,right,1.022208199952729,134.0964396999916,None,134.0964396999916,None,134.0964396999916,None,134.0964396999916,None,134.0964396999916,None,134.0964396999916,None,134.0964396999916,None,134.0964396999916,None,134.0964396999916,None,134.0964396999916,None,,,,,,001,2020_Apr_12_1941,Tymula Experiment,3.2.3,59.55223861588745,
50,50,0,75,25,0.0,0,-0.5,0.5,0.5,0.5,0.5,0,32,32,100,,,,,,,,,,,,,,,,,,,,,,,,,,,,,,,,,,,,,,,,,,,,,,,,,right,0.5617370000109076,135.207913500024,None,135.207913500024,None,135.207913500024,None,135.207913500024,None,135.207913500024,None,135.207913500024,None,135.207913500024,None,135.207913500024,None,135.207913500024,None,135.207913500024,None,,,,,,001,2020_Apr_12_1941,Tymula Experiment,3.2.3,59.55223861588745,
-8,-8,0,50,50,0.325,50,0.5,-0.5,-0.5,-0.5,-0.5,0,33,33,54,,,,,,,,,,,,,,,,,,,,,,,,,,,,,,,,,,,,,,,,,,,,,,,,,left,0.7143622000003234,135.8596706999815,None,135.8596706999815,None,135.8596706999815,None,135.8596706999815,None,135.8596706999815,None,135.8596706999815,None,135.8596706999815,None,135.8596706999815,None,135.8596706999815,None,135.8596706999815,None,,,,,,001,2020_Apr_12_1941,Tymula Experiment,3.2.3,59.55223861588745,
-8,-8,0,25,75,0.0,0,0.5,-0.5,-0.5,-0.5,-0.5,0,34,34,49,,,,,,,,,,,,,,,,,,,,,,,,,,,,,,,,,,,,,,,,,,,,,,,,,left,0.6968591999611817,136.66383030003635,None,136.66383030003635,None,136.66383030003635,None,136.66383030003635,None,136.66383030003635,None,136.66383030003635,None,136.66383030003635,None,136.66383030003635,None,136.66383030003635,None,136.66383030003635,None,,,,,,001,2020_Apr_12_1941,Tymula Experiment,3.2.3,59.55223861588745,
-5,-5,0,13,87,0.0,0,0.5,-0.5,-0.5,-0.5,-0.5,0,35,35,24,,,,,,,,,,,,,,,,,,,,,,,,,,,,,,,,,,,,,,,,,,,,,,,,,left,0.6164712000172585,137.4542550999904,None,137.4542550999904,None,137.4542550999904,None,137.4542550999904,None,137.4542550999904,None,137.4542550999904,None,137.4542550999904,None,137.4542550999904,None,137.4542550999904,None,137.4542550999904,None,,,,,,001,2020_Apr_12_1941,Tymula Experiment,3.2.3,59.55223861588745,
8,8,0,50,50,0.481,74,0.5,-0.5,-0.5,-0.5,-0.5,0,36,36,47,,,,,,,,,,,,,,,,,,,,,,,,,,,,,,,,,,,,,,,,,,,,,,,,,left,0.6847969999653287,138.15493900002912,None,138.15493900002912,None,138.15493900002912,None,138.15493900002912,None,138.15493900002912,None,138.15493900002912,None,138.15493900002912,None,138.15493900002912,None,138.15493900002912,None,138.15493900002912,None,,,,,,001,2020_Apr_12_1941,Tymula Experiment,3.2.3,59.55223861588745,
-5,-5,0,50,50,0.481,74,-0.5,0.5,0.5,0.5,0.5,0,37,37,23,,,,,,,,,,,,,,,,,,,,,,,,,,,,,,,,,,,,,,,,,,,,,,,,,left,0.6813853000057861,138.93222600000445,None,138.93222600000445,None,138.93222600000445,None,138.93222600000445,None,138.93222600000445,None,138.93222600000445,None,138.93222600000445,None,138.93222600000445,None,138.93222600000445,None,138.93222600000445,None,,,,,,001,2020_Apr_12_1941,Tymula Experiment,3.2.3,59.55223861588745,
50,50,0,13,87,0.0,0,-0.5,0.5,0.5,0.5,0.5,0,38,38,96,,,,,,,,,,,,,,,,,,,,,,,,,,,,,,,,,,,,,,,,,,,,,,,,,right,0.37793760001659393,139.71016920002876,None,139.71016920002876,None,139.71016920002876,None,139.71016920002876,None,139.71016920002876,None,139.71016920002876,None,139.71016920002876,None,139.71016920002876,None,139.71016920002876,None,139.71016920002876,None,,,,,,001,2020_Apr_12_1941,Tymula Experiment,3.2.3,59.55223861588745,
-125,-125,0,50,50,0.156,24,0.5,-0.5,-0.5,-0.5,-0.5,0,39,39,157,,,,,,,,,,,,,,,,,,,,,,,,,,,,,,,,,,,,,,,,,,,,,,,,,left,0.41744059999473393,140.17959120002342,None,140.17959120002342,None,140.17959120002342,None,140.17959120002342,None,140.17959120002342,None,140.17959120002342,None,140.17959120002342,None,140.17959120002342,None,140.17959120002342,None,140.17959120002342,None,,,,,,001,2020_Apr_12_1941,Tymula Experiment,3.2.3,59.55223861588745,
20,20,0,75,25,0.0,0,-0.5,0.5,0.5,0.5,0.5,0,40,40,68,,,,,,,,,,,,,,,,,,,,,,,,,,,,,,,,,,,,,,,,,,,,,,,,,right,0.30335699999704957,140.69967320002615,None,140.69967320002615,None,140.69967320002615,None,140.69967320002615,None,140.69967320002615,None,140.69967320002615,None,140.69967320002615,None,140.69967320002615,None,140.69967320002615,None,140.69967320002615,None,,,,,,001,2020_Apr_12_1941,Tymula Experiment,3.2.3,59.55223861588745,
5,5,0,13,87,0.0,0,-0.5,0.5,0.5,0.5,0.5,0,41,41,0,,,,,,,,,,,,,,,,,,,,,,,,,,,,,,,,,,,,,,,,,,,,,,,,,left,0.3386529000126757,141.1207129000104,None,141.1207129000104,None,141.1207129000104,None,141.1207129000104,None,141.1207129000104,None,141.1207129000104,None,141.1207129000104,None,141.1207129000104,None,141.1207129000104,None,141.1207129000104,None,,,,,,001,2020_Apr_12_1941,Tymula Experiment,3.2.3,59.55223861588745,
8,8,0,38,62,0.0,0,0.5,-0.5,-0.5,-0.5,-0.5,0,42,42,42,,,,,,,,,,,,,,,,,,,,,,,,,,,,,,,,,,,,,,,,,,,,,,,,,right,0.2303673999849707,141.56285360001493,None,141.56285360001493,None,141.56285360001493,None,141.56285360001493,None,141.56285360001493,None,141.56285360001493,None,141.56285360001493,None,141.56285360001493,None,141.56285360001493,None,141.56285360001493,None,,,,,,001,2020_Apr_12_1941,Tymula Experiment,3.2.3,59.55223861588745,
-8,-8,0,13,87,0.0,0,0.5,-0.5,-0.5,-0.5,-0.5,0,43,43,56,,,,,,,,,,,,,,,,,,,,,,,,,,,,,,,,,,,,,,,,,,,,,,,,,left,0.29035749996546656,141.88244140002644,None,141.88244140002644,None,141.88244140002644,None,141.88244140002644,None,141.88244140002644,None,141.88244140002644,None,141.88244140002644,None,141.88244140002644,None,141.88244140002644,None,141.88244140002644,None,,,,,,001,2020_Apr_12_1941,Tymula Experiment,3.2.3,59.55223861588745,
5,5,0,50,50,0.156,24,-0.5,0.5,0.5,0.5,0.5,0,44,44,5,,,,,,,,,,,,,,,,,,,,,,,,,,,,,,,,,,,,,,,,,,,,,,,,,right,0.18190790002699941,142.26760540000396,None,142.26760540000396,None,142.26760540000396,None,142.26760540000396,None,142.26760540000396,None,142.26760540000396,None,142.26760540000396,None,142.26760540000396,None,142.26760540000396,None,142.26760540000396,None,,,,,,001,2020_Apr_12_1941,Tymula Experiment,3.2.3,59.55223861588745,
20,20,0,50,50,0.0,0,-0.5,0.5,0.5,0.5,0.5,0,45,45,75,,,,,,,,,,,,,,,,,,,,,,,,,,,,,,,,,,,,,,,,,,,,,,,,,left,0.2406491999863647,142.54693100001896,None,142.54693100001896,None,142.54693100001896,None,142.54693100001896,None,142.54693100001896,None,142.54693100001896,None,142.54693100001896,None,142.54693100001896,None,142.54693100001896,None,142.54693100001896,None,,,,,,001,2020_Apr_12_1941,Tymula Experiment,3.2.3,59.55223861588745,
125,125,0,38,62,0.0,0,-0.5,0.5,0.5,0.5,0.5,0,46,46,130,,,,,,,,,,,,,,,,,,,,,,,,,,,,,,,,,,,,,,,,,,,,,,,,,right,0.09576060000108555,142.92481789999874,None,142.92481789999874,None,142.92481789999874,None,142.92481789999874,None,142.92481789999874,None,142.92481789999874,None,142.92481789999874,None,142.92481789999874,None,142.92481789999874,None,142.92481789999874,None,,,,,,001,2020_Apr_12_1941,Tymula Experiment,3.2.3,59.55223861588745,
-125,-125,0,38,62,0.0,0,-0.5,0.5,0.5,0.5,0.5,0,47,47,146,,,,,,,,,,,,,,,,,,,,,,,,,,,,,,,,,,,,,,,,,,,,,,,,,left,0.13517970003886148,143.13485239999136,None,143.13485239999136,None,143.13485239999136,None,143.13485239999136,None,143.13485239999136,None,143.13485239999136,None,143.13485239999136,None,143.13485239999136,None,143.13485239999136,None,143.13485239999136,None,,,,,,001,2020_Apr_12_1941,Tymula Experiment,3.2.3,59.55223861588745,
-50,-50,0,38,62,0.0,0,0.5,-0.5,-0.5,-0.5,-0.5,0,48,48,122,,,,,,,,,,,,,,,,,,,,,,,,,,,,,,,,,,,,,,,,,,,,,,,,,right,0.1169450999586843,143.4069175000186,None,143.4069175000186,None,143.4069175000186,None,143.4069175000186,None,143.4069175000186,None,143.4069175000186,None,143.4069175000186,None,143.4069175000186,None,143.4069175000186,None,143.4069175000186,None,,,,,,001,2020_Apr_12_1941,Tymula Experiment,3.2.3,59.55223861588745,
20,20,0,25,75,0.0,0,-0.5,0.5,0.5,0.5,0.5,0,49,49,73,,,,,,,,,,,,,,,,,,,,,,,,,,,,,,,,,,,,,,,,,,,,,,,,,left,0.23680479999165982,143.61315260000993,None,143.61315260000993,None,143.61315260000993,None,143.61315260000993,None,143.61315260000993,None,143.61315260000993,None,143.61315260000993,None,143.61315260000993,None,143.61315260000993,None,143.61315260000993,None,,,,,,001,2020_Apr_12_1941,Tymula Experiment,3.2.3,59.55223861588745,
125,125,0,13,87,0.0,0,0.5,-0.5,-0.5,-0.5,-0.5,0,50,50,136,,,,,,,,,,,,,,,,,,,,,,,,,,,,,,,,,,,,,,,,,,,,,,,,,right,0.13817150000249967,143.9539827000117,None,143.9539827000117,None,143.9539827000117,None,143.9539827000117,None,143.9539827000117,None,143.9539827000117,None,143.9539827000117,None,143.9539827000117,None,143.9539827000117,None,143.9539827000117,None,,,,,,001,2020_Apr_12_1941,Tymula Experiment,3.2.3,59.55223861588745,
-125,-125,0,50,50,0.325,50,0.5,-0.5,-0.5,-0.5,-0.5,0,51,51,150,,,,,,,,,,,,,,,,,,,,,,,,,,,,,,,,,,,,,,,,,,,,,,,,,left,0.21507289999863133,144.18433910002932,None,144.18433910002932,None,144.18433910002932,None,144.18433910002932,None,144.18433910002932,None,144.18433910002932,None,144.18433910002932,None,144.18433910002932,None,144.18433910002932,None,144.18433910002932,None,,,,,,001,2020_Apr_12_1941,Tymula Experiment,3.2.3,59.55223861588745,
20,20,0,75,25,0.0,0,-0.5,0.5,0.5,0.5,0.5,0,52,52,76,,,,,,,,,,,,,,,,,,,,,,,,,,,,,,,,,,,,,,,,,,,,,,,,,right,0.14361040003132075,144.49919970001793,None,144.49919970001793,None,144.49919970001793,None,144.49919970001793,None,144.49919970001793,None,144.49919970001793,None,144.49919970001793,None,144.49919970001793,None,144.49919970001793,None,144.49919970001793,None,,,,,,001,2020_Apr_12_1941,Tymula Experiment,3.2.3,59.55223861588745,
-8,-8,0,75,25,0.0,0,-0.5,0.5,0.5,0.5,0.5,0,53,53,52,,,,,,,,,,,,,,,,,,,,,,,,,,,,,,,,,,,,,,,,,,,,,,,,,left,0.2800472999806516,144.7305640000268,None,144.7305640000268,None,144.7305640000268,None,144.7305640000268,None,144.7305640000268,None,144.7305640000268,None,144.7305640000268,None,144.7305640000268,None,144.7305640000268,None,144.7305640000268,None,,,,,,001,2020_Apr_12_1941,Tymula Experiment,3.2.3,59.55223861588745,
20,20,0,50,50,0.325,50,0.5,-0.5,-0.5,-0.5,-0.5,0,54,54,70,,,,,,,,,,,,,,,,,,,,,,,,,,,,,,,,,,,,,,,,,,,,,,,,,right,0.1355631000478752,145.10782219999237,None,145.10782219999237,None,145.10782219999237,None,145.10782219999237,None,145.10782219999237,None,145.10782219999237,None,145.10782219999237,None,145.10782219999237,None,145.10782219999237,None,145.10782219999237,None,,,,,,001,2020_Apr_12_1941,Tymula Experiment,3.2.3,59.55223861588745,
-125,-125,0,50,50,0.481,74,0.5,-0.5,-0.5,-0.5,-0.5,0,55,55,159,,,,,,,,,,,,,,,,,,,,,,,,,,,,,,,,,,,,,,,,,,,,,,,,,left,1.1620221000048332,145.33099719998427,None,145.33099719998427,None,145.33099719998427,None,145.33099719998427,None,145.33099719998427,None,145.33099719998427,None,145.33099719998427,None,145.33099719998427,None,145.33099719998427,None,145.33099719998427,None,,,,,,001,2020_Apr_12_1941,Tymula Experiment,3.2.3,59.55223861588745,
-5,-5,0,50,50,0.156,24,0.5,-0.5,-0.5,-0.5,-0.5,0,56,56,29,,,,,,,,,,,,,,,,,,,,,,,,,,,,,,,,,,,,,,,,,,,,,,,,,right,0.19930489995749667,146.58302080002613,None,146.58302080002613,None,146.58302080002613,None,146.58302080002613,None,146.58302080002613,None,146.58302080002613,None,146.58302080002613,None,146.58302080002613,None,146.58302080002613,None,146.58302080002613,None,,,,,,001,2020_Apr_12_1941,Tymula Experiment,3.2.3,59.55223861588745,
-5,-5,0,25,75,0.0,0,0.5,-0.5,-0.5,-0.5,-0.5,0,57,57,17,,,,,,,,,,,,,,,,,,,,,,,,,,,,,,,,,,,,,,,,,,,,,,,,,left,0.132029699976556,146.9143176000216,None,146.9143176000216,None,146.9143176000216,None,146.9143176000216,None,146.9143176000216,None,146.9143176000216,None,146.9143176000216,None,146.9143176000216,None,146.9143176000216,None,146.9143176000216,None,,,,,,001,2020_Apr_12_1941,Tymula Experiment,3.2.3,59.55223861588745,
-125,-125,0,25,75,0.0,0,0.5,-0.5,-0.5,-0.5,-0.5,0,58,58,145,,,,,,,,,,,,,,,,,,,,,,,,,,,,,,,,,,,,,,,,,,,,,,,,,right,0.144105400016997,147.15374300000258,None,147.15374300000258,None,147.15374300000258,None,147.15374300000258,None,147.15374300000258,None,147.15374300000258,None,147.15374300000258,None,147.15374300000258,None,147.15374300000258,None,147.15374300000258,None,,,,,,001,2020_Apr_12_1941,Tymula Experiment,3.2.3,59.55223861588745,
-125,-125,0,50,50,0.156,24,-0.5,0.5,0.5,0.5,0.5,0,59,59,149,,,,,,,,,,,,,,,,,,,,,,,,,,,,,,,,,,,,,,,,,,,,,,,,,left,0.17277850001119077,147.39438389998395,None,147.39438389998395,None,147.39438389998395,None,147.39438389998395,None,147.39438389998395,None,147.39438389998395,None,147.39438389998395,None,147.39438389998395,None,147.39438389998395,None,147.39438389998395,None,,,,,,001,2020_Apr_12_1941,Tymula Experiment,3.2.3,59.55223861588745,
125,125,0,50,50,0.0,0,-0.5,0.5,0.5,0.5,0.5,0,60,60,139,,,,,,,,,,,,,,,,,,,,,,,,,,,,,,,,,,,,,,,,,,,,,,,,,right,0.1397205000394024,147.66537479998078,None,147.66537479998078,None,147.66537479998078,None,147.66537479998078,None,147.66537479998078,None,147.66537479998078,None,147.66537479998078,None,147.66537479998078,None,147.66537479998078,None,147.66537479998078,None,,,,,,001,2020_Apr_12_1941,Tymula Experiment,3.2.3,59.55223861588745,
-8,-8,0,50,50,0.481,74,0.5,-0.5,-0.5,-0.5,-0.5,0,61,61,63,,,,,,,,,,,,,,,,,,,,,,,,,,,,,,,,,,,,,,,,,,,,,,,,,left,0.11794289998942986,147.89617890003137,None,147.89617890003137,None,147.89617890003137,None,147.89617890003137,None,147.89617890003137,None,147.89617890003137,None,147.89617890003137,None,147.89617890003137,None,147.89617890003137,None,147.89617890003137,None,,,,,,001,2020_Apr_12_1941,Tymula Experiment,3.2.3,59.55223861588745,
125,125,0,25,75,0.0,0,0.5,-0.5,-0.5,-0.5,-0.5,0,62,62,129,,,,,,,,,,,,,,,,,,,,,,,,,,,,,,,,,,,,,,,,,,,,,,,,,right,0.13418320001801476,148.11828769999556,None,148.11828769999556,None,148.11828769999556,None,148.11828769999556,None,148.11828769999556,None,148.11828769999556,None,148.11828769999556,None,148.11828769999556,None,148.11828769999556,None,148.11828769999556,None,,,,,,001,2020_Apr_12_1941,Tymula Experiment,3.2.3,59.55223861588745,
5,5,0,13,87,0.0,0,0.5,-0.5,-0.5,-0.5,-0.5,0,63,63,8,,,,,,,,,,,,,,,,,,,,,,,,,,,,,,,,,,,,,,,,,,,,,,,,,left,0.07151550002163276,148.38103930000216,None,148.38103930000216,None,148.38103930000216,None,148.38103930000216,None,148.38103930000216,None,148.38103930000216,None,148.38103930000216,None,148.38103930000216,None,148.38103930000216,None,148.38103930000216,None,,,,,,001,2020_Apr_12_1941,Tymula Experiment,3.2.3,59.55223861588745,
-8,-8,0,50,50,0.481,74,-0.5,0.5,0.5,0.5,0.5,0,64,64,55,,,,,,,,,,,,,,,,,,,,,,,,,,,,,,,,,,,,,,,,,,,,,,,,,right,0.14574680000077933,148.54142110003158,None,148.54142110003158,None,148.54142110003158,None,148.54142110003158,None,148.54142110003158,None,148.54142110003158,None,148.54142110003158,None,148.54142110003158,None,148.54142110003158,None,148.54142110003158,None,,,,,,001,2020_Apr_12_1941,Tymula Experiment,3.2.3,59.55223861588745,
50,50,0,25,75,0.0,0,-0.5,0.5,0.5,0.5,0.5,0,65,65,105,,,,,,,,,,,,,,,,,,,,,,,,,,,,,,,,,,,,,,,,,,,,,,,,,left,0.12976380001055077,148.77966880000895,None,148.77966880000895,None,148.77966880000895,None,148.77966880000895,None,148.77966880000895,None,148.77966880000895,None,148.77966880000895,None,148.77966880000895,None,148.77966880000895,None,148.77966880000895,None,,,,,,001,2020_Apr_12_1941,Tymula Experiment,3.2.3,59.55223861588745,
5,5,0,50,50,0.325,50,0.5,-0.5,-0.5,-0.5,-0.5,0,66,66,6,,,,,,,,,,,,,,,,,,,,,,,,,,,,,,,,,,,,,,,,,,,,,,,,,right,0.13803219998953864,149.00257650000276,None,149.00257650000276,None,149.00257650000276,None,149.00257650000276,None,149.00257650000276,None,149.00257650000276,None,149.00257650000276,None,149.00257650000276,None,149.00257650000276,None,149.00257650000276,None,,,,,,001,2020_Apr_12_1941,Tymula Experiment,3.2.3,59.55223861588745,
-50,-50,0,25,75,0.0,0,-0.5,0.5,0.5,0.5,0.5,0,67,67,121,,,,,,,,,,,,,,,,,,,,,,,,,,,,,,,,,,,,,,,,,,,,,,,,,left,0.09597339999163523,149.2381925000227,None,149.2381925000227,None,149.2381925000227,None,149.2381925000227,None,149.2381925000227,None,149.2381925000227,None,149.2381925000227,None,149.2381925000227,None,149.2381925000227,None,149.2381925000227,None,,,,,,001,2020_Apr_12_1941,Tymula Experiment,3.2.3,59.55223861588745,
50,50,0,50,50,0.0,0,0.5,-0.5,-0.5,-0.5,-0.5,0,68,68,99,,,,,,,,,,,,,,,,,,,,,,,,,,,,,,,,,,,,,,,,,,,,,,,,,right,0.1279791999841109,149.42714719998185,None,149.42714719998185,None,149.42714719998185,None,149.42714719998185,None,149.42714719998185,None,149.42714719998185,None,149.42714719998185,None,149.42714719998185,None,149.42714719998185,None,149.42714719998185,None,,,,,,001,2020_Apr_12_1941,Tymula Experiment,3.2.3,59.55223861588745,
-125,-125,0,38,62,0.0,0,0.5,-0.5,-0.5,-0.5,-0.5,0,69,69,154,,,,,,,,,,,,,,,,,,,,,,,,,,,,,,,,,,,,,,,,,,,,,,,,,left,0.09767940000165254,149.65391390002333,None,149.65391390002333,None,149.65391390002333,None,149.65391390002333,None,149.65391390002333,None,149.65391390002333,None,149.65391390002333,None,149.65391390002333,None,149.65391390002333,None,149.65391390002333,None,,,,,,001,2020_Apr_12_1941,Tymula Experiment,3.2.3,59.55223861588745,
8,8,0,38,62,0.0,0,-0.5,0.5,0.5,0.5,0.5,0,70,70,34,,,,,,,,,,,,,,,,,,,,,,,,,,,,,,,,,,,,,,,,,,,,,,,,,right,0.13731679995544255,149.85493999999017,None,149.85493999999017,None,149.85493999999017,None,149.85493999999017,None,149.85493999999017,None,149.85493999999017,None,149.85493999999017,None,149.85493999999017,None,149.85493999999017,None,149.85493999999017,None,,,,,,001,2020_Apr_12_1941,Tymula Experiment,3.2.3,59.55223861588745,
125,125,0,50,50,0.156,24,-0.5,0.5,0.5,0.5,0.5,0,71,71,133,,,,,,,,,,,,,,,,,,,,,,,,,,,,,,,,,,,,,,,,,,,,,,,,,left,0.1167659999919124,150.05766039999435,None,150.05766039999435,None,150.05766039999435,None,150.05766039999435,None,150.05766039999435,None,150.05766039999435,None,150.05766039999435,None,150.05766039999435,None,150.05766039999435,None,150.05766039999435,None,,,,,,001,2020_Apr_12_1941,Tymula Experiment,3.2.3,59.55223861588745,
-8,-8,0,50,50,0.0,0,-0.5,0.5,0.5,0.5,0.5,0,72,72,59,,,,,,,,,,,,,,,,,,,,,,,,,,,,,,,,,,,,,,,,,,,,,,,,,right,0.06840739998733625,150.2942892999854,None,150.2942892999854,None,150.2942892999854,None,150.2942892999854,None,150.2942892999854,None,150.2942892999854,None,150.2942892999854,None,150.2942892999854,None,150.2942892999854,None,150.2942892999854,None,,,,,,001,2020_Apr_12_1941,Tymula Experiment,3.2.3,59.55223861588745,
8,8,0,50,50,0.0,0,0.5,-0.5,-0.5,-0.5,-0.5,0,73,73,35,,,,,,,,,,,,,,,,,,,,,,,,,,,,,,,,,,,,,,,,,,,,,,,,,left,0.09722190001048148,150.45904909999808,None,150.45904909999808,None,150.45904909999808,None,150.45904909999808,None,150.45904909999808,None,150.45904909999808,None,150.45904909999808,None,150.45904909999808,None,150.45904909999808,None,150.45904909999808,None,,,,,,001,2020_Apr_12_1941,Tymula Experiment,3.2.3,59.55223861588745,
-50,-50,0,13,87,0.0,0,0.5,-0.5,-0.5,-0.5,-0.5,0,74,74,120,,,,,,,,,,,,,,,,,,,,,,,,,,,,,,,,,,,,,,,,,,,,,,,,,right,0.07852749997982755,150.65600509999786,None,150.65600509999786,None,150.65600509999786,None,150.65600509999786,None,150.65600509999786,None,150.65600509999786,None,150.65600509999786,None,150.65600509999786,None,150.65600509999786,None,150.65600509999786,None,,,,,,001,2020_Apr_12_1941,Tymula Experiment,3.2.3,59.55223861588745,
-8,-8,0,13,87,0.0,0,-0.5,0.5,0.5,0.5,0.5,0,75,75,48,,,,,,,,,,,,,,,,,,,,,,,,,,,,,,,,,,,,,,,,,,,,,,,,,left,0.08929749997332692,150.84083070000634,None,150.84083070000634,None,150.84083070000634,None,150.84083070000634,None,150.84083070000634,None,150.84083070000634,None,150.84083070000634,None,150.84083070000634,None,150.84083070000634,None,150.84083070000634,None,,,,,,001,2020_Apr_12_1941,Tymula Experiment,3.2.3,59.55223861588745,
5,5,0,50,50,0.156,24,0.5,-0.5,-0.5,-0.5,-0.5,0,76,76,13,,,,,,,,,,,,,,,,,,,,,,,,,,,,,,,,,,,,,,,,,,,,,,,,,right,0.10042380000231788,151.01725380000426,None,151.01725380000426,None,151.01725380000426,None,151.01725380000426,None,151.01725380000426,None,151.01725380000426,None,151.01725380000426,None,151.01725380000426,None,151.01725380000426,None,151.01725380000426,None,,,,,,001,2020_Apr_12_1941,Tymula Experiment,3.2.3,59.55223861588745,
-50,-50,0,50,50,0.325,50,-0.5,0.5,0.5,0.5,0.5,0,77,77,126,,,,,,,,,,,,,,,,,,,,,,,,,,,,,,,,,,,,,,,,,,,,,,,,,left,0.04837020003469661,151.21487979998346,None,151.21487979998346,None,151.21487979998346,None,151.21487979998346,None,151.21487979998346,None,151.21487979998346,None,151.21487979998346,None,151.21487979998346,None,151.21487979998346,None,151.21487979998346,None,,,,,,001,2020_Apr_12_1941,Tymula Experiment,3.2.3,59.55223861588745,
-8,-8,0,38,62,0.0,0,0.5,-0.5,-0.5,-0.5,-0.5,0,78,78,58,,,,,,,,,,,,,,,,,,,,,,,,,,,,,,,,,,,,,,,,,,,,,,,,,right,0.08103649999247864,151.36356319999322,None,151.36356319999322,None,151.36356319999322,None,151.36356319999322,None,151.36356319999322,None,151.36356319999322,None,151.36356319999322,None,151.36356319999322,None,151.36356319999322,None,151.36356319999322,None,,,,,,001,2020_Apr_12_1941,Tymula Experiment,3.2.3,59.55223861588745,
-125,-125,0,13,87,0.0,0,-0.5,0.5,0.5,0.5,0.5,0,79,79,144,,,,,,,,,,,,,,,,,,,,,,,,,,,,,,,,,,,,,,,,,,,,,,,,,left,0.02770740003325045,151.54953259998,None,151.54953259998,None,151.54953259998,None,151.54953259998,None,151.54953259998,None,151.54953259998,None,151.54953259998,None,151.54953259998,None,151.54953259998,None,151.54953259998,None,,,,,,001,2020_Apr_12_1941,Tymula Experiment,3.2.3,59.55223861588745,
-5,-5,0,38,62,0.0,0,-0.5,0.5,0.5,0.5,0.5,0,80,80,18,,,,,,,,,,,,,,,,,,,,,,,,,,,,,,,,,,,,,,,,,,,,,,,,,right,0.13297549996059388,151.64578080002684,None,151.64578080002684,None,151.64578080002684,None,151.64578080002684,None,151.64578080002684,None,151.64578080002684,None,151.64578080002684,None,151.64578080002684,None,151.64578080002684,None,151.64578080002684,None,,,,,,001,2020_Apr_12_1941,Tymula Experiment,3.2.3,59.55223861588745,
-50,-50,0,25,75,0.0,0,0.5,-0.5,-0.5,-0.5,-0.5,0,81,81,113,,,,,,,,,,,,,,,,,,,,,,,,,,,,,,,,,,,,,,,,,,,,,,,,,left,0.022239900019485503,151.88471840001876,None,151.88471840001876,None,151.88471840001876,None,151.88471840001876,None,151.88471840001876,None,151.88471840001876,None,151.88471840001876,None,151.88471840001876,None,151.88471840001876,None,151.88471840001876,None,,,,,,001,2020_Apr_12_1941,Tymula Experiment,3.2.3,59.55223861588745,
-5,-5,0,13,87,0.0,0,-0.5,0.5,0.5,0.5,0.5,0,82,82,16,,,,,,,,,,,,,,,,,,,,,,,,,,,,,,,,,,,,,,,,,,,,,,,,,right,0.17857980000553653,152.00088180002058,None,152.00088180002058,None,152.00088180002058,None,152.00088180002058,None,152.00088180002058,None,152.00088180002058,None,152.00088180002058,None,152.00088180002058,None,152.00088180002058,None,152.00088180002058,None,,,,,,001,2020_Apr_12_1941,Tymula Experiment,3.2.3,59.55223861588745,
50,50,0,75,25,0.0,0,-0.5,0.5,0.5,0.5,0.5,0,83,83,108,,,,,,,,,,,,,,,,,,,,,,,,,,,,,,,,,,,,,,,,,,,,,,,,,left,0.12714060000143945,152.27527460001875,None,152.27527460001875,None,152.27527460001875,None,152.27527460001875,None,152.27527460001875,None,152.27527460001875,None,152.27527460001875,None,152.27527460001875,None,152.27527460001875,None,152.27527460001875,None,,,,,,001,2020_Apr_12_1941,Tymula Experiment,3.2.3,59.55223861588745,
125,125,0,38,62,0.0,0,0.5,-0.5,-0.5,-0.5,-0.5,0,84,84,138,,,,,,,,,,,,,,,,,,,,,,,,,,,,,,,,,,,,,,,,,,,,,,,,,right,0.10704319999786094,152.5062118000351,None,152.5062118000351,None,152.5062118000351,None,152.5062118000351,None,152.5062118000351,None,152.5062118000351,None,152.5062118000351,None,152.5062118000351,None,152.5062118000351,None,152.5062118000351,None,,,,,,001,2020_Apr_12_1941,Tymula Experiment,3.2.3,59.55223861588745,
50,50,0,50,50,0.481,74,-0.5,0.5,0.5,0.5,0.5,0,85,85,103,,,,,,,,,,,,,,,,,,,,,,,,,,,,,,,,,,,,,,,,,,,,,,,,,left,0.02774590003537014,152.73538979998557,None,152.73538979998557,None,152.73538979998557,None,152.73538979998557,None,152.73538979998557,None,152.73538979998557,None,152.73538979998557,None,152.73538979998557,None,152.73538979998557,None,152.73538979998557,None,,,,,,001,2020_Apr_12_1941,Tymula Experiment,3.2.3,59.55223861588745,
8,8,0,25,75,0.0,0,0.5,-0.5,-0.5,-0.5,-0.5,0,86,86,33,,,,,,,,,,,,,,,,,,,,,,,,,,,,,,,,,,,,,,,,,,,,,,,,,right,0.18609339999966323,152.8598411999992,None,152.8598411999992,None,152.8598411999992,None,152.8598411999992,None,152.8598411999992,None,152.8598411999992,None,152.8598411999992,None,152.8598411999992,None,152.8598411999992,None,152.8598411999992,None,,,,,,001,2020_Apr_12_1941,Tymula Experiment,3.2.3,59.55223861588745,
-20,-20,0,75,25,0.0,0,-0.5,0.5,0.5,0.5,0.5,0,87,87,84,,,,,,,,,,,,,,,,,,,,,,,,,,,,,,,,,,,,,,,,,,,,,,,,,left,0.04436699999496341,153.1522245000233,None,153.1522245000233,None,153.1522245000233,None,153.1522245000233,None,153.1522245000233,None,153.1522245000233,None,153.1522245000233,None,153.1522245000233,None,153.1522245000233,None,153.1522245000233,None,,,,,,001,2020_Apr_12_1941,Tymula Experiment,3.2.3,59.55223861588745,
20,20,0,50,50,0.156,24,-0.5,0.5,0.5,0.5,0.5,0,88,88,69,,,,,,,,,,,,,,,,,,,,,,,,,,,,,,,,,,,,,,,,,,,,,,,,,right,0.07256140001118183,153.29501830000663,None,153.29501830000663,None,153.29501830000663,None,153.29501830000663,None,153.29501830000663,None,153.29501830000663,None,153.29501830000663,None,153.29501830000663,None,153.29501830000663,None,153.29501830000663,None,,,,,,001,2020_Apr_12_1941,Tymula Experiment,3.2.3,59.55223861588745,
-50,-50,0,50,50,0.481,74,-0.5,0.5,0.5,0.5,0.5,0,89,89,119,,,,,,,,,,,,,,,,,,,,,,,,,,,,,,,,,,,,,,,,,,,,,,,,,left,0.060505200002808124,153.46465909999097,None,153.46465909999097,None,153.46465909999097,None,153.46465909999097,None,153.46465909999097,None,153.46465909999097,None,153.46465909999097,None,153.46465909999097,None,153.46465909999097,None,153.46465909999097,None,,,,,,001,2020_Apr_12_1941,Tymula Experiment,3.2.3,59.55223861588745,
50,50,0,50,50,0.156,24,0.5,-0.5,-0.5,-0.5,-0.5,0,90,90,109,,,,,,,,,,,,,,,,,,,,,,,,,,,,,,,,,,,,,,,,,,,,,,,,,right,0.17673780000768602,153.60918800003128,None,153.60918800003128,None,153.60918800003128,None,153.60918800003128,None,153.60918800003128,None,153.60918800003128,None,153.60918800003128,None,153.60918800003128,None,153.60918800003128,None,153.60918800003128,None,,,,,,001,2020_Apr_12_1941,Tymula Experiment,3.2.3,59.55223861588745,
-50,-50,0,75,25,0.0,0,-0.5,0.5,0.5,0.5,0.5,0,91,91,116,,,,,,,,,,,,,,,,,,,,,,,,,,,,,,,,,,,,,,,,,,,,,,,,,left,0.09514569997554645,153.8752010000171,None,153.8752010000171,None,153.8752010000171,None,153.8752010000171,None,153.8752010000171,None,153.8752010000171,None,153.8752010000171,None,153.8752010000171,None,153.8752010000171,None,153.8752010000171,None,,,,,,001,2020_Apr_12_1941,Tymula Experiment,3.2.3,59.55223861588745,
-20,-20,0,25,75,0.0,0,0.5,-0.5,-0.5,-0.5,-0.5,0,92,92,81,,,,,,,,,,,,,,,,,,,,,,,,,,,,,,,,,,,,,,,,,,,,,,,,,right,0.14471109997248277,154.06060670001898,None,154.06060670001898,None,154.06060670001898,None,154.06060670001898,None,154.06060670001898,None,154.06060670001898,None,154.06060670001898,None,154.06060670001898,None,154.06060670001898,None,154.06060670001898,None,,,,,,001,2020_Apr_12_1941,Tymula Experiment,3.2.3,59.55223861588745,
-20,-20,0,38,62,0.0,0,0.5,-0.5,-0.5,-0.5,-0.5,0,93,93,90,,,,,,,,,,,,,,,,,,,,,,,,,,,,,,,,,,,,,,,,,,,,,,,,,left,0.03002159995958209,154.34623910003575,None,154.34623910003575,None,154.34623910003575,None,154.34623910003575,None,154.34623910003575,None,154.34623910003575,None,154.34623910003575,None,154.34623910003575,None,154.34623910003575,None,154.34623910003575,None,,,,,,001,2020_Apr_12_1941,Tymula Experiment,3.2.3,59.55223861588745,
125,125,0,50,50,0.0,0,0.5,-0.5,-0.5,-0.5,-0.5,0,94,94,131,,,,,,,,,,,,,,,,,,,,,,,,,,,,,,,,,,,,,,,,,,,,,,,,,right,0.13444069999968633,154.47235729999375,None,154.47235729999375,None,154.47235729999375,None,154.47235729999375,None,154.47235729999375,None,154.47235729999375,None,154.47235729999375,None,154.47235729999375,None,154.47235729999375,None,154.47235729999375,None,,,,,,001,2020_Apr_12_1941,Tymula Experiment,3.2.3,59.55223861588745,
8,8,0,75,25,0.0,0,-0.5,0.5,0.5,0.5,0.5,0,95,95,44,,,,,,,,,,,,,,,,,,,,,,,,,,,,,,,,,,,,,,,,,,,,,,,,,left,0.08953530003782362,154.70380540000042,None,154.70380540000042,None,154.70380540000042,None,154.70380540000042,None,154.70380540000042,None,154.70380540000042,None,154.70380540000042,None,154.70380540000042,None,154.70380540000042,None,154.70380540000042,None,,,,,,001,2020_Apr_12_1941,Tymula Experiment,3.2.3,59.55223861588745,
-8,-8,0,25,75,0.0,0,-0.5,0.5,0.5,0.5,0.5,0,96,96,57,,,,,,,,,,,,,,,,,,,,,,,,,,,,,,,,,,,,,,,,,,,,,,,,,right,0.22323549998691306,154.8881353000179,None,154.8881353000179,None,154.8881353000179,None,154.8881353000179,None,154.8881353000179,None,154.8881353000179,None,154.8881353000179,None,154.8881353000179,None,154.8881353000179,None,154.8881353000179,None,,,,,,001,2020_Apr_12_1941,Tymula Experiment,3.2.3,59.55223861588745,
125,125,0,25,75,0.0,0,-0.5,0.5,0.5,0.5,0.5,0,97,97,137,,,,,,,,,,,,,,,,,,,,,,,,,,,,,,,,,,,,,,,,,,,,,,,,,left,0.24796429998241365,155.20969990000594,None,155.20969990000594,None,155.20969990000594,None,155.20969990000594,None,155.20969990000594,None,155.20969990000594,None,155.20969990000594,None,155.20969990000594,None,155.20969990000594,None,155.20969990000594,None,,,,,,001,2020_Apr_12_1941,Tymula Experiment,3.2.3,59.55223861588745,
50,50,0,50,50,0.325,50,-0.5,0.5,0.5,0.5,0.5,0,98,98,110,,,,,,,,,,,,,,,,,,,,,,,,,,,,,,,,,,,,,,,,,,,,,,,,,right,0.10553449997678399,155.55459210003028,None,155.55459210003028,None,155.55459210003028,None,155.55459210003028,None,155.55459210003028,None,155.55459210003028,None,155.55459210003028,None,155.55459210003028,None,155.55459210003028,None,155.55459210003028,None,,,,,,001,2020_Apr_12_1941,Tymula Experiment,3.2.3,59.55223861588745,
8,8,0,75,25,0.0,0,-0.5,0.5,0.5,0.5,0.5,0,99,99,36,,,,,,,,,,,,,,,,,,,,,,,,,,,,,,,,,,,,,,,,,,,,,,,,,left,0.10474979999708012,155.7546686999849,None,155.7546686999849,None,155.7546686999849,None,155.7546686999849,None,155.7546686999849,None,155.7546686999849,None,155.7546686999849,None,155.7546686999849,None,155.7546686999849,None,155.7546686999849,None,,,,,,001,2020_Apr_12_1941,Tymula Experiment,3.2.3,59.55223861588745,
20,20,0,13,87,0.0,0,-0.5,0.5,0.5,0.5,0.5,0,100,100,64,,,,,,,,,,,,,,,,,,,,,,,,,,,,,,,,,,,,,,,,,,,,,,,,,right,0.1415679999627173,155.96442820003722,None,155.96442820003722,None,155.96442820003722,None,155.96442820003722,None,155.96442820003722,None,155.96442820003722,None,155.96442820003722,None,155.96442820003722,None,155.96442820003722,None,155.96442820003722,None,,,,,,001,2020_Apr_12_1941,Tymula Experiment,3.2.3,59.55223861588745,
-50,-50,0,75,25,0.0,0,-0.5,0.5,0.5,0.5,0.5,0,101,101,124,,,,,,,,,,,,,,,,,,,,,,,,,,,,,,,,,,,,,,,,,,,,,,,,,left,0.10591400001430884,156.20487690001028,None,156.20487690001028,None,156.20487690001028,None,156.20487690001028,None,156.20487690001028,None,156.20487690001028,None,156.20487690001028,None,156.20487690001028,None,156.20487690001028,None,156.20487690001028,None,,,,,,001,2020_Apr_12_1941,Tymula Experiment,3.2.3,59.55223861588745,
20,20,0,38,62,0.0,0,-0.5,0.5,0.5,0.5,0.5,0,102,102,66,,,,,,,,,,,,,,,,,,,,,,,,,,,,,,,,,,,,,,,,,,,,,,,,,right,0.15455420000944287,156.41354849998606,None,156.41354849998606,None,156.41354849998606,None,156.41354849998606,None,156.41354849998606,None,156.41354849998606,None,156.41354849998606,None,156.41354849998606,None,156.41354849998606,None,156.41354849998606,None,,,,,,001,2020_Apr_12_1941,Tymula Experiment,3.2.3,59.55223861588745,
-125,-125,0,75,25,0.0,0,-0.5,0.5,0.5,0.5,0.5,0,103,103,156,,,,,,,,,,,,,,,,,,,,,,,,,,,,,,,,,,,,,,,,,,,,,,,,,right,0.12715780001599342,156.66280230000848,None,156.66280230000848,None,156.66280230000848,None,156.66280230000848,None,156.66280230000848,None,156.66280230000848,None,156.66280230000848,None,156.66280230000848,None,156.66280230000848,None,156.66280230000848,None,,,,,,001,2020_Apr_12_1941,Tymula Experiment,3.2.3,59.55223861588745,
-50,-50,0,50,50,0.0,0,-0.5,0.5,0.5,0.5,0.5,0,104,104,123,,,,,,,,,,,,,,,,,,,,,,,,,,,,,,,,,,,,,,,,,,,,,,,,,left,0.05231589998584241,156.88986779999686,None,156.88986779999686,None,156.88986779999686,None,156.88986779999686,None,156.88986779999686,None,156.88986779999686,None,156.88986779999686,None,156.88986779999686,None,156.88986779999686,None,156.88986779999686,None,,,,,,001,2020_Apr_12_1941,Tymula Experiment,3.2.3,59.55223861588745,
-5,-5,0,25,75,0.0,0,-0.5,0.5,0.5,0.5,0.5,0,105,105,25,,,,,,,,,,,,,,,,,,,,,,,,,,,,,,,,,,,,,,,,,,,,,,,,,left,0.1075515000266023,157.038899999985,None,157.038899999985,None,157.038899999985,None,157.038899999985,None,157.038899999985,None,157.038899999985,None,157.038899999985,None,157.038899999985,None,157.038899999985,None,157.038899999985,None,,,,,,001,2020_Apr_12_1941,Tymula Experiment,3.2.3,59.55223861588745,
5,5,0,25,75,0.0,0,0.5,-0.5,-0.5,-0.5,-0.5,0,106,106,1,,,,,,,,,,,,,,,,,,,,,,,,,,,,,,,,,,,,,,,,,,,,,,,,,right,0.09549300000071526,157.22897310002008,None,157.22897310002008,None,157.22897310002008,None,157.22897310002008,None,157.22897310002008,None,157.22897310002008,None,157.22897310002008,None,157.22897310002008,None,157.22897310002008,None,157.22897310002008,None,,,,,,001,2020_Apr_12_1941,Tymula Experiment,3.2.3,59.55223861588745,
50,50,0,13,87,0.0,0,0.5,-0.5,-0.5,-0.5,-0.5,0,107,107,104,,,,,,,,,,,,,,,,,,,,,,,,,,,,,,,,,,,,,,,,,,,,,,,,,left,0.09590199997182935,157.42590020003263,None,157.42590020003263,None,157.42590020003263,None,157.42590020003263,None,157.42590020003263,None,157.42590020003263,None,157.42590020003263,None,157.42590020003263,None,157.42590020003263,None,157.42590020003263,None,,,,,,001,2020_Apr_12_1941,Tymula Experiment,3.2.3,59.55223861588745,
5,5,0,25,75,0.0,0,-0.5,0.5,0.5,0.5,0.5,0,108,108,9,,,,,,,,,,,,,,,,,,,,,,,,,,,,,,,,,,,,,,,,,,,,,,,,,left,0.12787039997056127,157.62204580003163,None,157.62204580003163,None,157.62204580003163,None,157.62204580003163,None,157.62204580003163,None,157.62204580003163,None,157.62204580003163,None,157.62204580003163,None,157.62204580003163,None,157.62204580003163,None,,,,,,001,2020_Apr_12_1941,Tymula Experiment,3.2.3,59.55223861588745,
20,20,0,50,50,0.481,74,-0.5,0.5,0.5,0.5,0.5,0,109,109,71,,,,,,,,,,,,,,,,,,,,,,,,,,,,,,,,,,,,,,,,,,,,,,,,,left,0.14262480003526434,157.84302979998756,None,157.84302979998756,None,157.84302979998756,None,157.84302979998756,None,157.84302979998756,None,157.84302979998756,None,157.84302979998756,None,157.84302979998756,None,157.84302979998756,None,157.84302979998756,None,,,,,,001,2020_Apr_12_1941,Tymula Experiment,3.2.3,59.55223861588745,
-20,-20,0,50,50,0.0,0,0.5,-0.5,-0.5,-0.5,-0.5,0,110,110,83,,,,,,,,,,,,,,,,,,,,,,,,,,,,,,,,,,,,,,,,,,,,,,,,,right,0.10050599998794496,158.07739009999204,None,158.07739009999204,None,158.07739009999204,None,158.07739009999204,None,158.07739009999204,None,158.07739009999204,None,158.07739009999204,None,158.07739009999204,None,158.07739009999204,None,158.07739009999204,None,,,,,,001,2020_Apr_12_1941,Tymula Experiment,3.2.3,59.55223861588745,
50,50,0,50,50,0.481,74,0.5,-0.5,-0.5,-0.5,-0.5,0,111,111,111,,,,,,,,,,,,,,,,,,,,,,,,,,,,,,,,,,,,,,,,,,,,,,,,,right,0.19548960000975057,158.2732439999818,None,158.2732439999818,None,158.2732439999818,None,158.2732439999818,None,158.2732439999818,None,158.2732439999818,None,158.2732439999818,None,158.2732439999818,None,158.2732439999818,None,158.2732439999818,None,,,,,,001,2020_Apr_12_1941,Tymula Experiment,3.2.3,59.55223861588745,
8,8,0,50,50,0.325,50,0.5,-0.5,-0.5,-0.5,-0.5,0,112,112,38,,,,,,,,,,,,,,,,,,,,,,,,,,,,,,,,,,,,,,,,,,,,,,,,,right,0.15642319998005405,158.5542935000267,None,158.5542935000267,None,158.5542935000267,None,158.5542935000267,None,158.5542935000267,None,158.5542935000267,None,158.5542935000267,None,158.5542935000267,None,158.5542935000267,None,158.5542935000267,None,,,,,,001,2020_Apr_12_1941,Tymula Experiment,3.2.3,59.55223861588745,
-20,-20,0,50,50,0.325,50,-0.5,0.5,0.5,0.5,0.5,0,113,113,94,,,,,,,,,,,,,,,,,,,,,,,,,,,,,,,,,,,,,,,,,,,,,,,,,left,0.13350369996624067,158.80955300002825,None,158.80955300002825,None,158.80955300002825,None,158.80955300002825,None,158.80955300002825,None,158.80955300002825,None,158.80955300002825,None,158.80955300002825,None,158.80955300002825,None,158.80955300002825,None,,,,,,001,2020_Apr_12_1941,Tymula Experiment,3.2.3,59.55223861588745,
5,5,0,50,50,0.481,74,0.5,-0.5,-0.5,-0.5,-0.5,0,114,114,15,,,,,,,,,,,,,,,,,,,,,,,,,,,,,,,,,,,,,,,,,,,,,,,,,right,0.1091399000142701,159.03743369999574,None,159.03743369999574,None,159.03743369999574,None,159.03743369999574,None,159.03743369999574,None,159.03743369999574,None,159.03743369999574,None,159.03743369999574,None,159.03743369999574,None,159.03743369999574,None,,,,,,001,2020_Apr_12_1941,Tymula Experiment,3.2.3,59.55223861588745,
-125,-125,0,13,87,0.0,0,0.5,-0.5,-0.5,-0.5,-0.5,0,115,115,152,,,,,,,,,,,,,,,,,,,,,,,,,,,,,,,,,,,,,,,,,,,,,,,,,left,0.25405619997764006,159.24799110001186,None,159.24799110001186,None,159.24799110001186,None,159.24799110001186,None,159.24799110001186,None,159.24799110001186,None,159.24799110001186,None,159.24799110001186,None,159.24799110001186,None,159.24799110001186,None,,,,,,001,2020_Apr_12_1941,Tymula Experiment,3.2.3,59.55223861588745,
8,8,0,50,50,0.325,50,-0.5,0.5,0.5,0.5,0.5,0,116,116,46,,,,,,,,,,,,,,,,,,,,,,,,,,,,,,,,,,,,,,,,,,,,,,,,,right,0.12546529999235645,159.590255099989,None,159.590255099989,None,159.590255099989,None,159.590255099989,None,159.590255099989,None,159.590255099989,None,159.590255099989,None,159.590255099989,None,159.590255099989,None,159.590255099989,None,,,,,,001,2020_Apr_12_1941,Tymula Experiment,3.2.3,59.55223861588745,
-8,-8,0,75,25,0.0,0,-0.5,0.5,0.5,0.5,0.5,0,117,117,60,,,,,,,,,,,,,,,,,,,,,,,,,,,,,,,,,,,,,,,,,,,,,,,,,right,0.13290919997962192,159.8143194000004,None,159.8143194000004,None,159.8143194000004,None,159.8143194000004,None,159.8143194000004,None,159.8143194000004,None,159.8143194000004,None,159.8143194000004,None,159.8143194000004,None,159.8143194000004,None,,,,,,001,2020_Apr_12_1941,Tymula Experiment,3.2.3,59.55223861588745,
50,50,0,50,50,0.156,24,-0.5,0.5,0.5,0.5,0.5,0,118,118,101,,,,,,,,,,,,,,,,,,,,,,,,,,,,,,,,,,,,,,,,,,,,,,,,,left,0.015356599993538111,160.04157070000656,None,160.04157070000656,None,160.04157070000656,None,160.04157070000656,None,160.04157070000656,None,160.04157070000656,None,160.04157070000656,None,160.04157070000656,None,160.04157070000656,None,160.04157070000656,None,,,,,,001,2020_Apr_12_1941,Tymula Experiment,3.2.3,59.55223861588745,
125,125,0,75,25,0.0,0,-0.5,0.5,0.5,0.5,0.5,0,119,119,132,,,,,,,,,,,,,,,,,,,,,,,,,,,,,,,,,,,,,,,,,,,,,,,,,left,0.13649420003639534,160.1527642000001,None,160.1527642000001,None,160.1527642000001,None,160.1527642000001,None,160.1527642000001,None,160.1527642000001,None,160.1527642000001,None,160.1527642000001,None,160.1527642000001,None,160.1527642000001,None,,,,,,001,2020_Apr_12_1941,Tymula Experiment,3.2.3,59.55223861588745,
-20,-20,0,50,50,0.0,0,-0.5,0.5,0.5,0.5,0.5,0,120,120,91,,,,,,,,,,,,,,,,,,,,,,,,,,,,,,,,,,,,,,,,,,,,,,,,,right,0.06741560000227764,160.3834575000219,None,160.3834575000219,None,160.3834575000219,None,160.3834575000219,None,160.3834575000219,None,160.3834575000219,None,160.3834575000219,None,160.3834575000219,None,160.3834575000219,None,160.3834575000219,None,,,,,,001,2020_Apr_12_1941,Tymula Experiment,3.2.3,59.55223861588745,
-8,-8,0,50,50,0.0,0,0.5,-0.5,-0.5,-0.5,-0.5,0,121,121,51,,,,,,,,,,,,,,,,,,,,,,,,,,,,,,,,,,,,,,,,,,,,,,,,,left,0.10422030003974214,160.5411710999906,None,160.5411710999906,None,160.5411710999906,None,160.5411710999906,None,160.5411710999906,None,160.5411710999906,None,160.5411710999906,None,160.5411710999906,None,160.5411710999906,None,160.5411710999906,None,,,,,,001,2020_Apr_12_1941,Tymula Experiment,3.2.3,59.55223861588745,
8,8,0,50,50,0.0,0,-0.5,0.5,0.5,0.5,0.5,0,122,122,43,,,,,,,,,,,,,,,,,,,,,,,,,,,,,,,,,,,,,,,,,,,,,,,,,left,0.09644450002815574,160.7375373999821,None,160.7375373999821,None,160.7375373999821,None,160.7375373999821,None,160.7375373999821,None,160.7375373999821,None,160.7375373999821,None,160.7375373999821,None,160.7375373999821,None,160.7375373999821,None,,,,,,001,2020_Apr_12_1941,Tymula Experiment,3.2.3,59.55223861588745,
8,8,0,50,50,0.481,74,-0.5,0.5,0.5,0.5,0.5,0,123,123,39,,,,,,,,,,,,,,,,,,,,,,,,,,,,,,,,,,,,,,,,,,,,,,,,,right,0.054719300009310246,160.93068109999876,None,160.93068109999876,None,160.93068109999876,None,160.93068109999876,None,160.93068109999876,None,160.93068109999876,None,160.93068109999876,None,160.93068109999876,None,160.93068109999876,None,160.93068109999876,None,,,,,,001,2020_Apr_12_1941,Tymula Experiment,3.2.3,59.55223861588745,
8,8,0,13,87,0.0,0,0.5,-0.5,-0.5,-0.5,-0.5,0,124,124,40,,,,,,,,,,,,,,,,,,,,,,,,,,,,,,,,,,,,,,,,,,,,,,,,,left,0.10553719999734312,161.07848580001155,None,161.07848580001155,None,161.07848580001155,None,161.07848580001155,None,161.07848580001155,None,161.07848580001155,None,161.07848580001155,None,161.07848580001155,None,161.07848580001155,None,161.07848580001155,None,,,,,,001,2020_Apr_12_1941,Tymula Experiment,3.2.3,59.55223861588745,
-8,-8,0,38,62,0.0,0,-0.5,0.5,0.5,0.5,0.5,0,125,125,50,,,,,,,,,,,,,,,,,,,,,,,,,,,,,,,,,,,,,,,,,,,,,,,,,left,0.07011130003957078,161.3140649999841,None,161.3140649999841,None,161.3140649999841,None,161.3140649999841,None,161.3140649999841,None,161.3140649999841,None,161.3140649999841,None,161.3140649999841,None,161.3140649999841,None,161.3140649999841,None,,,,,,001,2020_Apr_12_1941,Tymula Experiment,3.2.3,59.55223861588745,
125,125,0,50,50,0.325,50,0.5,-0.5,-0.5,-0.5,-0.5,0,126,126,134,,,,,,,,,,,,,,,,,,,,,,,,,,,,,,,,,,,,,,,,,,,,,,,,,left,0.08297859999584034,161.47683940001298,None,161.47683940001298,None,161.47683940001298,None,161.47683940001298,None,161.47683940001298,None,161.47683940001298,None,161.47683940001298,None,161.47683940001298,None,161.47683940001298,None,161.47683940001298,None,,,,,,001,2020_Apr_12_1941,Tymula Experiment,3.2.3,59.55223861588745,
5,5,0,50,50,0.0,0,-0.5,0.5,0.5,0.5,0.5,0,127,127,11,,,,,,,,,,,,,,,,,,,,,,,,,,,,,,,,,,,,,,,,,,,,,,,,,right,0.30084509996231645,161.65049650002038,None,161.65049650002038,None,161.65049650002038,None,161.65049650002038,None,161.65049650002038,None,161.65049650002038,None,161.65049650002038,None,161.65049650002038,None,161.65049650002038,None,161.65049650002038,None,,,,,,001,2020_Apr_12_1941,Tymula Experiment,3.2.3,59.55223861588745,
125,125,0,50,50,0.156,24,0.5,-0.5,-0.5,-0.5,-0.5,0,128,128,141,,,,,,,,,,,,,,,,,,,,,,,,,,,,,,,,,,,,,,,,,,,,,,,,,left,0.0821511999820359,162.04273450002074,None,162.04273450002074,None,162.04273450002074,None,162.04273450002074,None,162.04273450002074,None,162.04273450002074,None,162.04273450002074,None,162.04273450002074,None,162.04273450002074,None,162.04273450002074,None,,,,,,001,2020_Apr_12_1941,Tymula Experiment,3.2.3,59.55223861588745,
-5,-5,0,38,62,0.0,0,0.5,-0.5,-0.5,-0.5,-0.5,0,129,129,26,,,,,,,,,,,,,,,,,,,,,,,,,,,,,,,,,,,,,,,,,,,,,,,,,left,0.23589900002116337,162.22617869998794,None,162.22617869998794,None,162.22617869998794,None,162.22617869998794,None,162.22617869998794,None,162.22617869998794,None,162.22617869998794,None,162.22617869998794,None,162.22617869998794,None,162.22617869998794,None,,,,,,001,2020_Apr_12_1941,Tymula Experiment,3.2.3,59.55223861588745,
-50,-50,0,50,50,0.156,24,0.5,-0.5,-0.5,-0.5,-0.5,0,130,130,125,,,,,,,,,,,,,,,,,,,,,,,,,,,,,,,,,,,,,,,,,,,,,,,,,left,0.09575499995844439,162.5496752000181,None,162.5496752000181,None,162.5496752000181,None,162.5496752000181,None,162.5496752000181,None,162.5496752000181,None,162.5496752000181,None,162.5496752000181,None,162.5496752000181,None,162.5496752000181,None,,,,,,001,2020_Apr_12_1941,Tymula Experiment,3.2.3,59.55223861588745,
-125,-125,0,50,50,0.0,0,-0.5,0.5,0.5,0.5,0.5,0,131,131,155,,,,,,,,,,,,,,,,,,,,,,,,,,,,,,,,,,,,,,,,,,,,,,,,,left,0.09320250002201647,162.73129929997958,None,162.73129929997958,None,162.73129929997958,None,162.73129929997958,None,162.73129929997958,None,162.73129929997958,None,162.73129929997958,None,162.73129929997958,None,162.73129929997958,None,162.73129929997958,None,,,,,,001,2020_Apr_12_1941,Tymula Experiment,3.2.3,59.55223861588745,
20,20,0,50,50,0.0,0,0.5,-0.5,-0.5,-0.5,-0.5,0,132,132,67,,,,,,,,,,,,,,,,,,,,,,,,,,,,,,,,,,,,,,,,,,,,,,,,,right,0.07748669997090474,162.94459189998452,None,162.94459189998452,None,162.94459189998452,None,162.94459189998452,None,162.94459189998452,None,162.94459189998452,None,162.94459189998452,None,162.94459189998452,None,162.94459189998452,None,162.94459189998452,None,,,,,,001,2020_Apr_12_1941,Tymula Experiment,3.2.3,59.55223861588745,
5,5,0,50,50,0.325,50,-0.5,0.5,0.5,0.5,0.5,0,133,133,14,,,,,,,,,,,,,,,,,,,,,,,,,,,,,,,,,,,,,,,,,,,,,,,,,right,0.1070672000059858,163.1107406000374,None,163.1107406000374,None,163.1107406000374,None,163.1107406000374,None,163.1107406000374,None,163.1107406000374,None,163.1107406000374,None,163.1107406000374,None,163.1107406000374,None,163.1107406000374,None,,,,,,001,2020_Apr_12_1941,Tymula Experiment,3.2.3,59.55223861588745,
5,5,0,75,25,0.0,0,-0.5,0.5,0.5,0.5,0.5,0,134,134,12,,,,,,,,,,,,,,,,,,,,,,,,,,,,,,,,,,,,,,,,,,,,,,,,,right,0.10025779996067286,163.31004680000478,None,163.31004680000478,None,163.31004680000478,None,163.31004680000478,None,163.31004680000478,None,163.31004680000478,None,163.31004680000478,None,163.31004680000478,None,163.31004680000478,None,163.31004680000478,None,,,,,,001,2020_Apr_12_1941,Tymula Experiment,3.2.3,59.55223861588745,
-20,-20,0,13,87,0.0,0,0.5,-0.5,-0.5,-0.5,-0.5,0,135,135,88,,,,,,,,,,,,,,,,,,,,,,,,,,,,,,,,,,,,,,,,,,,,,,,,,left,0.08005109999794513,163.51845249999315,None,163.51845249999315,None,163.51845249999315,None,163.51845249999315,None,163.51845249999315,None,163.51845249999315,None,163.51845249999315,None,163.51845249999315,None,163.51845249999315,None,163.51845249999315,None,,,,,,001,2020_Apr_12_1941,Tymula Experiment,3.2.3,59.55223861588745,
-50,-50,0,50,50,0.325,50,0.5,-0.5,-0.5,-0.5,-0.5,0,136,136,118,,,,,,,,,,,,,,,,,,,,,,,,,,,,,,,,,,,,,,,,,,,,,,,,,left,0.10679749998962507,163.69740800000727,None,163.69740800000727,None,163.69740800000727,None,163.69740800000727,None,163.69740800000727,None,163.69740800000727,None,163.69740800000727,None,163.69740800000727,None,163.69740800000727,None,163.69740800000727,None,,,,,,001,2020_Apr_12_1941,Tymula Experiment,3.2.3,59.55223861588745,
5,5,0,38,62,0.0,0,0.5,-0.5,-0.5,-0.5,-0.5,0,137,137,10,,,,,,,,,,,,,,,,,,,,,,,,,,,,,,,,,,,,,,,,,,,,,,,,,right,0.49776589998509735,163.90043390000938,None,163.90043390000938,None,163.90043390000938,None,163.90043390000938,None,163.90043390000938,None,163.90043390000938,None,163.90043390000938,None,163.90043390000938,None,163.90043390000938,None,163.90043390000938,None,,,,,,001,2020_Apr_12_1941,Tymula Experiment,3.2.3,59.55223861588745,
-20,-20,0,50,50,0.156,24,-0.5,0.5,0.5,0.5,0.5,0,138,138,85,,,,,,,,,,,,,,,,,,,,,,,,,,,,,,,,,,,,,,,,,,,,,,,,,left,0.3967906000325456,164.49181999999564,None,164.49181999999564,None,164.49181999999564,None,164.49181999999564,None,164.49181999999564,None,164.49181999999564,None,164.49181999999564,None,164.49181999999564,None,164.49181999999564,None,164.49181999999564,None,,,,,,001,2020_Apr_12_1941,Tymula Experiment,3.2.3,59.55223861588745,
-20,-20,0,50,50,0.481,74,0.5,-0.5,-0.5,-0.5,-0.5,0,139,139,95,,,,,,,,,,,,,,,,,,,,,,,,,,,,,,,,,,,,,,,,,,,,,,,,,right,0.2895111999823712,164.98389199998928,None,164.98389199998928,None,164.98389199998928,None,164.98389199998928,None,164.98389199998928,None,164.98389199998928,None,164.98389199998928,None,164.98389199998928,None,164.98389199998928,None,164.98389199998928,None,,,,,,001,2020_Apr_12_1941,Tymula Experiment,3.2.3,59.55223861588745,
-20,-20,0,50,50,0.325,50,0.5,-0.5,-0.5,-0.5,-0.5,0,140,140,86,,,,,,,,,,,,,,,,,,,,,,,,,,,,,,,,,,,,,,,,,,,,,,,,,right,0.10117909999098629,165.40136389998952,None,165.40136389998952,None,165.40136389998952,None,165.40136389998952,None,165.40136389998952,None,165.40136389998952,None,165.40136389998952,None,165.40136389998952,None,165.40136389998952,None,165.40136389998952,None,,,,,,001,2020_Apr_12_1941,Tymula Experiment,3.2.3,59.55223861588745,
20,20,0,13,87,0.0,0,0.5,-0.5,-0.5,-0.5,-0.5,0,141,141,72,,,,,,,,,,,,,,,,,,,,,,,,,,,,,,,,,,,,,,,,,,,,,,,,,left,0.14091900002676994,165.60671439999714,None,165.60671439999714,None,165.60671439999714,None,165.60671439999714,None,165.60671439999714,None,165.60671439999714,None,165.60671439999714,None,165.60671439999714,None,165.60671439999714,None,165.60671439999714,None,,,,,,001,2020_Apr_12_1941,Tymula Experiment,3.2.3,59.55223861588745,
-50,-50,0,38,62,0.0,0,-0.5,0.5,0.5,0.5,0.5,0,142,142,114,,,,,,,,,,,,,,,,,,,,,,,,,,,,,,,,,,,,,,,,,,,,,,,,,left,0.0284397000214085,165.89159020001534,None,165.89159020001534,None,165.89159020001534,None,165.89159020001534,None,165.89159020001534,None,165.89159020001534,None,165.89159020001534,None,165.89159020001534,None,165.89159020001534,None,165.89159020001534,None,,,,,,001,2020_Apr_12_1941,Tymula Experiment,3.2.3,59.55223861588745,
-20,-20,0,13,87,0.0,0,-0.5,0.5,0.5,0.5,0.5,0,143,143,80,,,,,,,,,,,,,,,,,,,,,,,,,,,,,,,,,,,,,,,,,,,,,,,,,left,0.02675939997425303,166.05346150003606,None,166.05346150003606,None,166.05346150003606,None,166.05346150003606,None,166.05346150003606,None,166.05346150003606,None,166.05346150003606,None,166.05346150003606,None,166.05346150003606,None,166.05346150003606,None,,,,,,001,2020_Apr_12_1941,Tymula Experiment,3.2.3,59.55223861588745,
-125,-125,0,50,50,0.481,74,-0.5,0.5,0.5,0.5,0.5,0,144,144,151,,,,,,,,,,,,,,,,,,,,,,,,,,,,,,,,,,,,,,,,,,,,,,,,,left,0.10147040005540475,166.18201260000933,None,166.18201260000933,None,166.18201260000933,None,166.18201260000933,None,166.18201260000933,None,166.18201260000933,None,166.18201260000933,None,166.18201260000933,None,166.18201260000933,None,166.18201260000933,None,,,,,,001,2020_Apr_12_1941,Tymula Experiment,3.2.3,59.55223861588745,
125,125,0,13,87,0.0,0,-0.5,0.5,0.5,0.5,0.5,0,145,145,128,,,,,,,,,,,,,,,,,,,,,,,,,,,,,,,,,,,,,,,,,,,,,,,,,right,0.21203729999251664,166.42415139998775,None,166.42415139998775,None,166.42415139998775,None,166.42415139998775,None,166.42415139998775,None,166.42415139998775,None,166.42415139998775,None,166.42415139998775,None,166.42415139998775,None,166.42415139998775,None,,,,,,001,2020_Apr_12_1941,Tymula Experiment,3.2.3,59.55223861588745,
-20,-20,0,75,25,0.0,0,-0.5,0.5,0.5,0.5,0.5,0,146,146,92,,,,,,,,,,,,,,,,,,,,,,,,,,,,,,,,,,,,,,,,,,,,,,,,,left,0.599887199990917,166.73521800001618,None,166.73521800001618,None,166.73521800001618,None,166.73521800001618,None,166.73521800001618,None,166.73521800001618,None,166.73521800001618,None,166.73521800001618,None,166.73521800001618,None,166.73521800001618,None,,,,,,001,2020_Apr_12_1941,Tymula Experiment,3.2.3,59.55223861588745,
8,8,0,13,87,0.0,0,-0.5,0.5,0.5,0.5,0.5,0,147,147,32,,,,,,,,,,,,,,,,,,,,,,,,,,,,,,,,,,,,,,,,,,,,,,,,,right,0.6790449000545777,167.47400749998633,None,167.47400749998633,None,167.47400749998633,None,167.47400749998633,None,167.47400749998633,None,167.47400749998633,None,167.47400749998633,None,167.47400749998633,None,167.47400749998633,None,167.47400749998633,None,,,,,,001,2020_Apr_12_1941,Tymula Experiment,3.2.3,59.55223861588745,
-50,-50,0,50,50,0.156,24,-0.5,0.5,0.5,0.5,0.5,0,148,148,117,,,,,,,,,,,,,,,,,,,,,,,,,,,,,,,,,,,,,,,,,,,,,,,,,left,1.5133591000339948,168.2193658000324,None,168.2193658000324,None,168.2193658000324,None,168.2193658000324,None,168.2193658000324,None,168.2193658000324,None,168.2193658000324,None,168.2193658000324,None,168.2193658000324,None,168.2193658000324,None,,,,,,001,2020_Apr_12_1941,Tymula Experiment,3.2.3,59.55223861588745,
-8,-8,0,50,50,0.156,24,-0.5,0.5,0.5,0.5,0.5,0,149,149,53,,,,,,,,,,,,,,,,,,,,,,,,,,,,,,,,,,,,,,,,,,,,,,,,,right,0.37901499995496124,169.82681990001583,None,169.82681990001583,None,169.82681990001583,None,169.82681990001583,None,169.82681990001583,None,169.82681990001583,None,169.82681990001583,None,169.82681990001583,None,169.82681990001583,None,169.82681990001583,None,,,,,,001,2020_Apr_12_1941,Tymula Experiment,3.2.3,59.55223861588745,
-5,-5,0,50,50,0.156,24,-0.5,0.5,0.5,0.5,0.5,0,150,150,21,,,,,,,,,,,,,,,,,,,,,,,,,,,,,,,,,,,,,,,,,,,,,,,,,left,0.2818254000158049,170.2940179000143,None,170.2940179000143,None,170.2940179000143,None,170.2940179000143,None,170.2940179000143,None,170.2940179000143,None,170.2940179000143,None,170.2940179000143,None,170.2940179000143,None,170.2940179000143,None,,,,,,001,2020_Apr_12_1941,Tymula Experiment,3.2.3,59.55223861588745,
5,5,0,50,50,0.481,74,-0.5,0.5,0.5,0.5,0.5,0,151,151,7,,,,,,,,,,,,,,,,,,,,,,,,,,,,,,,,,,,,,,,,,,,,,,,,,right,0.2624542000121437,170.69379779999144,None,170.69379779999144,None,170.69379779999144,None,170.69379779999144,None,170.69379779999144,None,170.69379779999144,None,170.69379779999144,None,170.69379779999144,None,170.69379779999144,None,170.69379779999144,None,,,,,,001,2020_Apr_12_1941,Tymula Experiment,3.2.3,59.55223861588745,
50,50,0,50,50,0.325,50,0.5,-0.5,-0.5,-0.5,-0.5,0,152,152,102,,,,,,,,,,,,,,,,,,,,,,,,,,,,,,,,,,,,,,,,,,,,,,,,,left,0.1588768000365235,171.03989499999443,None,171.03989499999443,None,171.03989499999443,None,171.03989499999443,None,171.03989499999443,None,171.03989499999443,None,171.03989499999443,None,171.03989499999443,None,171.03989499999443,None,171.03989499999443,None,,,,,,001,2020_Apr_12_1941,Tymula Experiment,3.2.3,59.55223861588745,
-50,-50,0,13,87,0.0,0,-0.5,0.5,0.5,0.5,0.5,0,153,153,112,,,,,,,,,,,,,,,,,,,,,,,,,,,,,,,,,,,,,,,,,,,,,,,,,right,0.22890029998961836,171.26235450000968,None,171.26235450000968,None,171.26235450000968,None,171.26235450000968,None,171.26235450000968,None,171.26235450000968,None,171.26235450000968,None,171.26235450000968,None,171.26235450000968,None,171.26235450000968,None,,,,,,001,2020_Apr_12_1941,Tymula Experiment,3.2.3,59.55223861588745,
-125,-125,0,50,50,0.325,50,-0.5,0.5,0.5,0.5,0.5,0,154,154,158,,,,,,,,,,,,,,,,,,,,,,,,,,,,,,,,,,,,,,,,,,,,,,,,,left,0.08976929995696992,171.63099640002474,None,171.63099640002474,None,171.63099640002474,None,171.63099640002474,None,171.63099640002474,None,171.63099640002474,None,171.63099640002474,None,171.63099640002474,None,171.63099640002474,None,171.63099640002474,None,,,,,,001,2020_Apr_12_1941,Tymula Experiment,3.2.3,59.55223861588745,
-8,-8,0,50,50,0.325,50,-0.5,0.5,0.5,0.5,0.5,0,155,155,62,,,,,,,,,,,,,,,,,,,,,,,,,,,,,,,,,,,,,,,,,,,,,,,,,right,0.13544719998026267,171.8143315000343,None,171.8143315000343,None,171.8143315000343,None,171.8143315000343,None,171.8143315000343,None,171.8143315000343,None,171.8143315000343,None,171.8143315000343,None,171.8143315000343,None,171.8143315000343,None,,,,,,001,2020_Apr_12_1941,Tymula Experiment,3.2.3,59.55223861588745,
-125,-125,0,25,75,0.0,0,-0.5,0.5,0.5,0.5,0.5,0,156,156,153,,,,,,,,,,,,,,,,,,,,,,,,,,,,,,,,,,,,,,,,,,,,,,,,,left,0.10849130002316087,172.0804569000029,None,172.0804569000029,None,172.0804569000029,None,172.0804569000029,None,172.0804569000029,None,172.0804569000029,None,172.0804569000029,None,172.0804569000029,None,172.0804569000029,None,172.0804569000029,None,,,,,,001,2020_Apr_12_1941,Tymula Experiment,3.2.3,59.55223861588745,
-5,-5,0,75,25,0.0,0,-0.5,0.5,0.5,0.5,0.5,0,157,157,20,,,,,,,,,,,,,,,,,,,,,,,,,,,,,,,,,,,,,,,,,,,,,,,,,right,0.1294435999589041,172.3150769000058,None,172.3150769000058,None,172.3150769000058,None,172.3150769000058,None,172.3150769000058,None,172.3150769000058,None,172.3150769000058,None,172.3150769000058,None,172.3150769000058,None,172.3150769000058,None,,,,,,001,2020_Apr_12_1941,Tymula Experiment,3.2.3,59.55223861588745,
50,50,0,38,62,0.0,0,0.5,-0.5,-0.5,-0.5,-0.5,0,158,158,106,,,,,,,,,,,,,,,,,,,,,,,,,,,,,,,,,,,,,,,,,,,,,,,,,left,0.14961839996976778,172.5381466000108,None,172.5381466000108,None,172.5381466000108,None,172.5381466000108,None,172.5381466000108,None,172.5381466000108,None,172.5381466000108,None,172.5381466000108,None,172.5381466000108,None,172.5381466000108,None,,,,,,001,2020_Apr_12_1941,Tymula Experiment,3.2.3,59.55223861588745,
-5,-5,0,50,50,0.481,74,0.5,-0.5,-0.5,-0.5,-0.5,0,159,159,31,,,,,,,,,,,,,,,,,,,,,,,,,,,,,,,,,,,,,,,,,,,,,,,,,right,0.1085800000000745,172.81161580001935,None,172.81161580001935,None,172.81161580001935,None,172.81161580001935,None,172.81161580001935,None,172.81161580001935,None,172.81161580001935,None,172.81161580001935,None,172.81161580001935,None,172.81161580001935,None,,,,,,001,2020_Apr_12_1941,Tymula Experiment,3.2.3,59.55223861588745,
,,,,,,,,,,,,,,,,,,,,,,,,,,,,,,,,,,,,,,,,,,,,,,,,,,,,,,,,,,,,,,,,,,,,,,,,,,,,,,,,,,,,,,172.96357620001072,None,172.96357620001072,None,,,,,,,
