key_resp_2.keys,key_resp_2.rt,key_resp.keys,key_resp.rt,trials.thisRepN,trials.thisTrialN,trials.thisN,trials.thisIndex,trials.ran,trials.order,Sure,OptionOne,OptionTwo,Risk,Risk2,AmbiguityBarH,Ambiguity,SureXPos,RiskXPos,OptionOneXPos,OptionTwoXPos,RiskX,participant,date,expName,psychopyVersion,OS,frameRate
space,8.592000008,right,20.60100007,1,0,160,44,1,159,8,8,0,75,25,0,0,-0.5,0.5,0.5,0.5,0.5,country,2020-06-26_11h04.47.593,Tymula Experiment,3.2.3,MacIntel,60
,,left,5.375,1,0,160,115,1,159,-50,-50,0,50,50,0,0,0.5,-0.5,-0.5,-0.5,-0.5,country,2020-06-26_11h04.47.593,Tymula Experiment,3.2.3,MacIntel,60
,,left,0.210000038,1,0,160,71,1,159,20,20,0,13,13,0.481,74,-0.5,0.5,0.5,0.5,0.5,country,2020-06-26_11h04.47.593,Tymula Experiment,3.2.3,MacIntel,60
,,right,6.777000189,1,0,160,57,1,159,-8,-8,0,25,75,0,0,-0.5,0.5,0.5,0.5,0.5,country,2020-06-26_11h04.47.593,Tymula Experiment,3.2.3,MacIntel,60
,,right,2.437000036,1,0,160,148,1,159,-125,-125,0,75,25,0,0,-0.5,0.5,0.5,0.5,0.5,country,2020-06-26_11h04.47.593,Tymula Experiment,3.2.3,MacIntel,60
,,left,6.816000223,1,0,160,64,1,159,20,20,0,13,87,0,0,-0.5,0.5,0.5,0.5,0.5,country,2020-06-26_11h04.47.593,Tymula Experiment,3.2.3,MacIntel,60
,,left,11.9230001,1,0,160,83,1,159,-20,-20,0,50,50,0,0,0.5,-0.5,-0.5,-0.5,-0.5,country,2020-06-26_11h04.47.593,Tymula Experiment,3.2.3,MacIntel,60
,,right,2.738000154,1,0,160,146,1,159,-125,-125,0,38,62,0,0,-0.5,0.5,0.5,0.5,0.5,country,2020-06-26_11h04.47.593,Tymula Experiment,3.2.3,MacIntel,60
,,left,3.101000071,1,0,160,120,1,159,-50,-50,0,13,87,0,0,0.5,-0.5,-0.5,-0.5,-0.5,country,2020-06-26_11h04.47.593,Tymula Experiment,3.2.3,MacIntel,60
,,right,4.971000195,1,0,160,67,1,159,20,20,0,50,50,0,0,0.5,-0.5,-0.5,-0.5,-0.5,country,2020-06-26_11h04.47.593,Tymula Experiment,3.2.3,MacIntel,60
,,right,5.728000164,1,0,160,40,1,159,8,8,0,13,87,0,0,0.5,-0.5,-0.5,-0.5,-0.5,country,2020-06-26_11h04.47.593,Tymula Experiment,3.2.3,MacIntel,60
,,right,7.141000032,1,0,160,101,1,159,50,50,0,38,38,0.156,24,-0.5,0.5,0.5,0.5,0.5,country,2020-06-26_11h04.47.593,Tymula Experiment,3.2.3,MacIntel,60
,,right,8.013000011,1,0,160,46,1,159,8,8,0,25,25,0.325,50,-0.5,0.5,0.5,0.5,0.5,country,2020-06-26_11h04.47.593,Tymula Experiment,3.2.3,MacIntel,60
,,left,8.889000177,1,0,160,52,1,159,-8,-8,0,75,25,0,0,-0.5,0.5,0.5,0.5,0.5,country,2020-06-26_11h04.47.593,Tymula Experiment,3.2.3,MacIntel,60
,,left,9.430999994,1,0,160,43,1,159,8,8,0,50,50,0,0,-0.5,0.5,0.5,0.5,0.5,country,2020-06-26_11h04.47.593,Tymula Experiment,3.2.3,MacIntel,60
,,right,10.09500027,1,0,160,95,1,159,-20,-20,0,13,13,0.481,74,0.5,-0.5,-0.5,-0.5,-0.5,country,2020-06-26_11h04.47.593,Tymula Experiment,3.2.3,MacIntel,60
,,right,7.378000021,1,0,160,156,1,159,-125,-125,0,75,25,0,0,-0.5,0.5,0.5,0.5,0.5,country,2020-06-26_11h04.47.593,Tymula Experiment,3.2.3,MacIntel,60
,,right,13.69300008,1,0,160,77,1,159,20,20,0,38,38,0.156,24,0.5,-0.5,-0.5,-0.5,-0.5,country,2020-06-26_11h04.47.593,Tymula Experiment,3.2.3,MacIntel,60
,,right,2.818000078,1,0,160,109,1,159,50,50,0,38,38,0.156,24,0.5,-0.5,-0.5,-0.5,-0.5,country,2020-06-26_11h04.47.593,Tymula Experiment,3.2.3,MacIntel,60
,,left,3.616000175,1,0,160,29,1,159,-5,-5,0,38,38,0.156,24,0.5,-0.5,-0.5,-0.5,-0.5,country,2020-06-26_11h04.47.593,Tymula Experiment,3.2.3,MacIntel,60
,,right,2.805999994,1,0,160,92,1,159,-20,-20,0,75,25,0,0,-0.5,0.5,0.5,0.5,0.5,country,2020-06-26_11h04.47.593,Tymula Experiment,3.2.3,MacIntel,60
,,right,1.898000002,1,0,160,23,1,159,-5,-5,0,13,13,0.481,74,-0.5,0.5,0.5,0.5,0.5,country,2020-06-26_11h04.47.593,Tymula Experiment,3.2.3,MacIntel,60
,,right,3.026000261,1,0,160,70,1,159,20,20,0,25,25,0.325,50,0.5,-0.5,-0.5,-0.5,-0.5,country,2020-06-26_11h04.47.593,Tymula Experiment,3.2.3,MacIntel,60
,,right,2.447999954,1,0,160,10,1,159,5,5,0,38,62,0,0,0.5,-0.5,-0.5,-0.5,-0.5,country,2020-06-26_11h04.47.593,Tymula Experiment,3.2.3,MacIntel,60
,,right,1.907999992,1,0,160,134,1,159,125,125,0,25,25,0.325,50,0.5,-0.5,-0.5,-0.5,-0.5,country,2020-06-26_11h04.47.593,Tymula Experiment,3.2.3,MacIntel,60
,,left,1.710999966,1,0,160,90,1,159,-20,-20,0,38,62,0,0,0.5,-0.5,-0.5,-0.5,-0.5,country,2020-06-26_11h04.47.593,Tymula Experiment,3.2.3,MacIntel,60
,,right,1.32400012,1,0,160,79,1,159,20,20,0,13,13,0.481,74,0.5,-0.5,-0.5,-0.5,-0.5,country,2020-06-26_11h04.47.593,Tymula Experiment,3.2.3,MacIntel,60
,,left,1.371999979,1,0,160,5,1,159,5,5,0,38,38,0.156,24,-0.5,0.5,0.5,0.5,0.5,country,2020-06-26_11h04.47.593,Tymula Experiment,3.2.3,MacIntel,60
,,right,2.448000193,1,0,160,123,1,159,-50,-50,0,50,50,0,0,-0.5,0.5,0.5,0.5,0.5,country,2020-06-26_11h04.47.593,Tymula Experiment,3.2.3,MacIntel,60
,,left,1.736999989,1,0,160,128,1,159,125,125,0,13,87,0,0,-0.5,0.5,0.5,0.5,0.5,country,2020-06-26_11h04.47.593,Tymula Experiment,3.2.3,MacIntel,60
,,left,6.410000086,1,0,160,113,1,159,-50,-50,0,25,75,0,0,0.5,-0.5,-0.5,-0.5,-0.5,country,2020-06-26_11h04.47.593,Tymula Experiment,3.2.3,MacIntel,60
,,left,5.578000069,1,0,160,19,1,159,-5,-5,0,50,50,0,0,0.5,-0.5,-0.5,-0.5,-0.5,country,2020-06-26_11h04.47.593,Tymula Experiment,3.2.3,MacIntel,60
,,left,8.167000294,1,0,160,7,1,159,5,5,0,13,13,0.481,74,-0.5,0.5,0.5,0.5,0.5,country,2020-06-26_11h04.47.593,Tymula Experiment,3.2.3,MacIntel,60
,,left,3.48300004,1,0,160,132,1,159,125,125,0,75,25,0,0,-0.5,0.5,0.5,0.5,0.5,country,2020-06-26_11h04.47.593,Tymula Experiment,3.2.3,MacIntel,60
,,left,2.526000023,1,0,160,39,1,159,8,8,0,13,13,0.481,74,-0.5,0.5,0.5,0.5,0.5,country,2020-06-26_11h04.47.593,Tymula Experiment,3.2.3,MacIntel,60
,,right,13.76999998,1,0,160,158,1,159,-125,-125,0,25,25,0.325,50,-0.5,0.5,0.5,0.5,0.5,country,2020-06-26_11h04.47.593,Tymula Experiment,3.2.3,MacIntel,60
,,left,3.232000113,1,0,160,54,1,159,-8,-8,0,25,25,0.325,50,0.5,-0.5,-0.5,-0.5,-0.5,country,2020-06-26_11h04.47.593,Tymula Experiment,3.2.3,MacIntel,60
,,right,2.450000286,1,0,160,117,1,159,-50,-50,0,38,38,0.156,24,-0.5,0.5,0.5,0.5,0.5,country,2020-06-26_11h04.47.593,Tymula Experiment,3.2.3,MacIntel,60
,,left,2.168000221,1,0,160,73,1,159,20,20,0,25,75,0,0,-0.5,0.5,0.5,0.5,0.5,country,2020-06-26_11h04.47.593,Tymula Experiment,3.2.3,MacIntel,60
,,left,1.856000185,1,0,160,137,1,159,125,125,0,25,75,0,0,-0.5,0.5,0.5,0.5,0.5,country,2020-06-26_11h04.47.593,Tymula Experiment,3.2.3,MacIntel,60
,,left,3.913000107,1,0,160,93,1,159,-20,-20,0,38,38,0.156,24,0.5,-0.5,-0.5,-0.5,-0.5,country,2020-06-26_11h04.47.593,Tymula Experiment,3.2.3,MacIntel,60
,,left,2.345000029,1,0,160,142,1,159,125,125,0,25,25,0.325,50,-0.5,0.5,0.5,0.5,0.5,country,2020-06-26_11h04.47.593,Tymula Experiment,3.2.3,MacIntel,60
,,left,3.321000099,1,0,160,140,1,159,125,125,0,75,25,0,0,-0.5,0.5,0.5,0.5,0.5,country,2020-06-26_11h04.47.593,Tymula Experiment,3.2.3,MacIntel,60
,,right,3.494000196,1,0,160,38,1,159,8,8,0,25,25,0.325,50,0.5,-0.5,-0.5,-0.5,-0.5,country,2020-06-26_11h04.47.593,Tymula Experiment,3.2.3,MacIntel,60
,,right,6.710000277,1,0,160,126,1,159,-50,-50,0,25,25,0.325,50,-0.5,0.5,0.5,0.5,0.5,country,2020-06-26_11h04.47.593,Tymula Experiment,3.2.3,MacIntel,60
,,right,3.867000103,1,0,160,3,1,159,5,5,0,50,50,0,0,0.5,-0.5,-0.5,-0.5,-0.5,country,2020-06-26_11h04.47.593,Tymula Experiment,3.2.3,MacIntel,60
,,left,3.98300004,1,0,160,88,1,159,-20,-20,0,13,87,0,0,0.5,-0.5,-0.5,-0.5,-0.5,country,2020-06-26_11h04.47.593,Tymula Experiment,3.2.3,MacIntel,60
,,left,1.548000097,1,0,160,154,1,159,-125,-125,0,38,62,0,0,0.5,-0.5,-0.5,-0.5,-0.5,country,2020-06-26_11h04.47.593,Tymula Experiment,3.2.3,MacIntel,60
,,left,1.673000097,1,0,160,81,1,159,-20,-20,0,25,75,0,0,0.5,-0.5,-0.5,-0.5,-0.5,country,2020-06-26_11h04.47.593,Tymula Experiment,3.2.3,MacIntel,60
,,right,2.921000004,1,0,160,82,1,159,-20,-20,0,38,62,0,0,-0.5,0.5,0.5,0.5,0.5,country,2020-06-26_11h04.47.593,Tymula Experiment,3.2.3,MacIntel,60
,,right,2.180000067,1,0,160,15,1,159,5,5,0,13,13,0.481,74,0.5,-0.5,-0.5,-0.5,-0.5,country,2020-06-26_11h04.47.593,Tymula Experiment,3.2.3,MacIntel,60
,,right,1.142000198,1,0,160,131,1,159,125,125,0,50,50,0,0,0.5,-0.5,-0.5,-0.5,-0.5,country,2020-06-26_11h04.47.593,Tymula Experiment,3.2.3,MacIntel,60
,,left,1.294000149,1,0,160,61,1,159,-8,-8,0,38,38,0.156,24,0.5,-0.5,-0.5,-0.5,-0.5,country,2020-06-26_11h04.47.593,Tymula Experiment,3.2.3,MacIntel,60
,,left,3.092000246,1,0,160,96,1,159,50,50,0,13,87,0,0,-0.5,0.5,0.5,0.5,0.5,country,2020-06-26_11h04.47.593,Tymula Experiment,3.2.3,MacIntel,60
,,right,4.818000078,1,0,160,24,1,159,-5,-5,0,13,87,0,0,0.5,-0.5,-0.5,-0.5,-0.5,country,2020-06-26_11h04.47.593,Tymula Experiment,3.2.3,MacIntel,60
,,right,8.26699996,1,0,160,47,1,159,8,8,0,13,13,0.481,74,0.5,-0.5,-0.5,-0.5,-0.5,country,2020-06-26_11h04.47.593,Tymula Experiment,3.2.3,MacIntel,60
,,right,2.333000183,1,0,160,85,1,159,-20,-20,0,38,38,0.156,24,-0.5,0.5,0.5,0.5,0.5,country,2020-06-26_11h04.47.593,Tymula Experiment,3.2.3,MacIntel,60
,,left,3.014000177,1,0,160,75,1,159,20,20,0,50,50,0,0,-0.5,0.5,0.5,0.5,0.5,country,2020-06-26_11h04.47.593,Tymula Experiment,3.2.3,MacIntel,60
,,left,2.822000027,1,0,160,157,1,159,-125,-125,0,38,38,0.156,24,0.5,-0.5,-0.5,-0.5,-0.5,country,2020-06-26_11h04.47.593,Tymula Experiment,3.2.3,MacIntel,60
,,right,3.694000244,1,0,160,1,1,159,5,5,0,25,75,0,0,0.5,-0.5,-0.5,-0.5,-0.5,country,2020-06-26_11h04.47.593,Tymula Experiment,3.2.3,MacIntel,60
,,left,3.847000122,1,0,160,110,1,159,50,50,0,25,25,0.325,50,-0.5,0.5,0.5,0.5,0.5,country,2020-06-26_11h04.47.593,Tymula Experiment,3.2.3,MacIntel,60
,,left,6.031000137,1,0,160,0,1,159,5,5,0,13,87,0,0,-0.5,0.5,0.5,0.5,0.5,country,2020-06-26_11h04.47.593,Tymula Experiment,3.2.3,MacIntel,60
,,left,4.447000265,1,0,160,125,1,159,-50,-50,0,38,38,0.156,24,0.5,-0.5,-0.5,-0.5,-0.5,country,2020-06-26_11h04.47.593,Tymula Experiment,3.2.3,MacIntel,60
,,left,2.722000122,1,0,160,147,1,159,-125,-125,0,50,50,0,0,0.5,-0.5,-0.5,-0.5,-0.5,country,2020-06-26_11h04.47.593,Tymula Experiment,3.2.3,MacIntel,60
,,right,2.674000025,1,0,160,53,1,159,-8,-8,0,38,38,0.156,24,-0.5,0.5,0.5,0.5,0.5,country,2020-06-26_11h04.47.593,Tymula Experiment,3.2.3,MacIntel,60
,,right,2.976000071,1,0,160,102,1,159,50,50,0,25,25,0.325,50,0.5,-0.5,-0.5,-0.5,-0.5,country,2020-06-26_11h04.47.593,Tymula Experiment,3.2.3,MacIntel,60
,,right,2.374000072,1,0,160,111,1,159,50,50,0,13,13,0.481,74,0.5,-0.5,-0.5,-0.5,-0.5,country,2020-06-26_11h04.47.593,Tymula Experiment,3.2.3,MacIntel,60
,,left,2.309000015,1,0,160,17,1,159,-5,-5,0,25,75,0,0,0.5,-0.5,-0.5,-0.5,-0.5,country,2020-06-26_11h04.47.593,Tymula Experiment,3.2.3,MacIntel,60
,,left,3.061000109,1,0,160,108,1,159,50,50,0,75,25,0,0,-0.5,0.5,0.5,0.5,0.5,country,2020-06-26_11h04.47.593,Tymula Experiment,3.2.3,MacIntel,60
,,left,6.19900012,1,0,160,135,1,159,125,125,0,13,13,0.481,74,-0.5,0.5,0.5,0.5,0.5,country,2020-06-26_11h04.47.593,Tymula Experiment,3.2.3,MacIntel,60
,,right,2.411000252,1,0,160,50,1,159,-8,-8,0,38,62,0,0,-0.5,0.5,0.5,0.5,0.5,country,2020-06-26_11h04.47.593,Tymula Experiment,3.2.3,MacIntel,60
,,left,11.92599988,1,0,160,9,1,159,5,5,0,25,75,0,0,-0.5,0.5,0.5,0.5,0.5,country,2020-06-26_11h04.47.593,Tymula Experiment,3.2.3,MacIntel,60
,,left,2.043000221,1,0,160,31,1,159,-5,-5,0,13,13,0.481,74,0.5,-0.5,-0.5,-0.5,-0.5,country,2020-06-26_11h04.47.593,Tymula Experiment,3.2.3,MacIntel,60
,,right,1.923000097,1,0,160,104,1,159,50,50,0,13,87,0,0,0.5,-0.5,-0.5,-0.5,-0.5,country,2020-06-26_11h04.47.593,Tymula Experiment,3.2.3,MacIntel,60
,,right,3.010000229,1,0,160,89,1,159,-20,-20,0,25,75,0,0,-0.5,0.5,0.5,0.5,0.5,country,2020-06-26_11h04.47.593,Tymula Experiment,3.2.3,MacIntel,60
,,right,3.907999992,1,0,160,80,1,159,-20,-20,0,13,87,0,0,-0.5,0.5,0.5,0.5,0.5,country,2020-06-26_11h04.47.593,Tymula Experiment,3.2.3,MacIntel,60
,,left,6.633000135,1,0,160,68,1,159,20,20,0,75,25,0,0,-0.5,0.5,0.5,0.5,0.5,country,2020-06-26_11h04.47.593,Tymula Experiment,3.2.3,MacIntel,60
,,left,10.88200021,1,0,160,2,1,159,5,5,0,38,62,0,0,-0.5,0.5,0.5,0.5,0.5,country,2020-06-26_11h04.47.593,Tymula Experiment,3.2.3,MacIntel,60
,,left,4.883000135,1,0,160,11,1,159,5,5,0,50,50,0,0,-0.5,0.5,0.5,0.5,0.5,country,2020-06-26_11h04.47.593,Tymula Experiment,3.2.3,MacIntel,60
,,left,4.836000204,1,0,160,76,1,159,20,20,0,75,25,0,0,-0.5,0.5,0.5,0.5,0.5,country,2020-06-26_11h04.47.593,Tymula Experiment,3.2.3,MacIntel,60
,,left,8.062000036,1,0,160,58,1,159,-8,-8,0,38,62,0,0,0.5,-0.5,-0.5,-0.5,-0.5,country,2020-06-26_11h04.47.593,Tymula Experiment,3.2.3,MacIntel,60
,,right,7.938000202,1,0,160,62,1,159,-8,-8,0,25,25,0.325,50,-0.5,0.5,0.5,0.5,0.5,country,2020-06-26_11h04.47.593,Tymula Experiment,3.2.3,MacIntel,60
,,left,2.494000196,1,0,160,37,1,159,8,8,0,38,38,0.156,24,-0.5,0.5,0.5,0.5,0.5,country,2020-06-26_11h04.47.593,Tymula Experiment,3.2.3,MacIntel,60
,,right,2.805000067,1,0,160,151,1,159,-125,-125,0,13,13,0.481,74,-0.5,0.5,0.5,0.5,0.5,country,2020-06-26_11h04.47.593,Tymula Experiment,3.2.3,MacIntel,60
,,right,3.772000074,1,0,160,138,1,159,125,125,0,38,62,0,0,0.5,-0.5,-0.5,-0.5,-0.5,country,2020-06-26_11h04.47.593,Tymula Experiment,3.2.3,MacIntel,60
,,left,4.492000103,1,0,160,86,1,159,-20,-20,0,25,25,0.325,50,0.5,-0.5,-0.5,-0.5,-0.5,country,2020-06-26_11h04.47.593,Tymula Experiment,3.2.3,MacIntel,60
,,right,8.555999994,1,0,160,28,1,159,-5,-5,0,75,25,0,0,-0.5,0.5,0.5,0.5,0.5,country,2020-06-26_11h04.47.593,Tymula Experiment,3.2.3,MacIntel,60
,,left,2.636000156,1,0,160,26,1,159,-5,-5,0,38,62,0,0,0.5,-0.5,-0.5,-0.5,-0.5,country,2020-06-26_11h04.47.593,Tymula Experiment,3.2.3,MacIntel,60
,,left,1.785000086,1,0,160,49,1,159,-8,-8,0,25,75,0,0,0.5,-0.5,-0.5,-0.5,-0.5,country,2020-06-26_11h04.47.593,Tymula Experiment,3.2.3,MacIntel,60
,,left,1.33100009,1,0,160,118,1,159,-50,-50,0,25,25,0.325,50,0.5,-0.5,-0.5,-0.5,-0.5,country,2020-06-26_11h04.47.593,Tymula Experiment,3.2.3,MacIntel,60
,,left,2.68900013,1,0,160,139,1,159,125,125,0,50,50,0,0,-0.5,0.5,0.5,0.5,0.5,country,2020-06-26_11h04.47.593,Tymula Experiment,3.2.3,MacIntel,60
,,left,1.476999998,1,0,160,14,1,159,5,5,0,25,25,0.325,50,-0.5,0.5,0.5,0.5,0.5,country,2020-06-26_11h04.47.593,Tymula Experiment,3.2.3,MacIntel,60
,,right,1.226999998,1,0,160,6,1,159,5,5,0,25,25,0.325,50,0.5,-0.5,-0.5,-0.5,-0.5,country,2020-06-26_11h04.47.593,Tymula Experiment,3.2.3,MacIntel,60
,,right,4.495000124,1,0,160,119,1,159,-50,-50,0,13,13,0.481,74,-0.5,0.5,0.5,0.5,0.5,country,2020-06-26_11h04.47.593,Tymula Experiment,3.2.3,MacIntel,60
,,right,6.937999964,1,0,160,129,1,159,125,125,0,25,75,0,0,0.5,-0.5,-0.5,-0.5,-0.5,country,2020-06-26_11h04.47.593,Tymula Experiment,3.2.3,MacIntel,60
,,right,1.805999994,1,0,160,72,1,159,20,20,0,13,87,0,0,0.5,-0.5,-0.5,-0.5,-0.5,country,2020-06-26_11h04.47.593,Tymula Experiment,3.2.3,MacIntel,60
,,left,3.196000099,1,0,160,63,1,159,-8,-8,0,13,13,0.481,74,0.5,-0.5,-0.5,-0.5,-0.5,country,2020-06-26_11h04.47.593,Tymula Experiment,3.2.3,MacIntel,60
,,right,1.534000158,1,0,160,153,1,159,-125,-125,0,25,75,0,0,-0.5,0.5,0.5,0.5,0.5,country,2020-06-26_11h04.47.593,Tymula Experiment,3.2.3,MacIntel,60
,,left,2.243000031,1,0,160,32,1,159,8,8,0,13,87,0,0,-0.5,0.5,0.5,0.5,0.5,country,2020-06-26_11h04.47.593,Tymula Experiment,3.2.3,MacIntel,60
,,left,1.275000095,1,0,160,66,1,159,20,20,0,38,62,0,0,-0.5,0.5,0.5,0.5,0.5,country,2020-06-26_11h04.47.593,Tymula Experiment,3.2.3,MacIntel,60
,,left,0.937000036,1,0,160,41,1,159,8,8,0,25,75,0,0,-0.5,0.5,0.5,0.5,0.5,country,2020-06-26_11h04.47.593,Tymula Experiment,3.2.3,MacIntel,60
,,left,2.313999891,1,0,160,34,1,159,8,8,0,38,62,0,0,-0.5,0.5,0.5,0.5,0.5,country,2020-06-26_11h04.47.593,Tymula Experiment,3.2.3,MacIntel,60
,,right,1.986000061,1,0,160,55,1,159,-8,-8,0,13,13,0.481,74,-0.5,0.5,0.5,0.5,0.5,country,2020-06-26_11h04.47.593,Tymula Experiment,3.2.3,MacIntel,60
,,right,3.505000114,1,0,160,114,1,159,-50,-50,0,38,62,0,0,-0.5,0.5,0.5,0.5,0.5,country,2020-06-26_11h04.47.593,Tymula Experiment,3.2.3,MacIntel,60
,,right,3.782999992,1,0,160,99,1,159,50,50,0,50,50,0,0,0.5,-0.5,-0.5,-0.5,-0.5,country,2020-06-26_11h04.47.593,Tymula Experiment,3.2.3,MacIntel,60
,,right,2.438000202,1,0,160,121,1,159,-50,-50,0,25,75,0,0,-0.5,0.5,0.5,0.5,0.5,country,2020-06-26_11h04.47.593,Tymula Experiment,3.2.3,MacIntel,60
,,right,2.121000051,1,0,160,18,1,159,-5,-5,0,38,62,0,0,-0.5,0.5,0.5,0.5,0.5,country,2020-06-26_11h04.47.593,Tymula Experiment,3.2.3,MacIntel,60
,,right,1.733999968,1,0,160,116,1,159,-50,-50,0,75,25,0,0,-0.5,0.5,0.5,0.5,0.5,country,2020-06-26_11h04.47.593,Tymula Experiment,3.2.3,MacIntel,60
,,right,1.935000181,1,0,160,87,1,159,-20,-20,0,13,13,0.481,74,-0.5,0.5,0.5,0.5,0.5,country,2020-06-26_11h04.47.593,Tymula Experiment,3.2.3,MacIntel,60
,,right,1.257000208,1,0,160,21,1,159,-5,-5,0,38,38,0.156,24,-0.5,0.5,0.5,0.5,0.5,country,2020-06-26_11h04.47.593,Tymula Experiment,3.2.3,MacIntel,60
,,right,3.268000126,1,0,160,35,1,159,8,8,0,50,50,0,0,0.5,-0.5,-0.5,-0.5,-0.5,country,2020-06-26_11h04.47.593,Tymula Experiment,3.2.3,MacIntel,60
,,right,1.171000004,1,0,160,45,1,159,8,8,0,38,38,0.156,24,0.5,-0.5,-0.5,-0.5,-0.5,country,2020-06-26_11h04.47.593,Tymula Experiment,3.2.3,MacIntel,60
,,left,1.545000076,1,0,160,133,1,159,125,125,0,38,38,0.156,24,-0.5,0.5,0.5,0.5,0.5,country,2020-06-26_11h04.47.593,Tymula Experiment,3.2.3,MacIntel,60
,,left,2.953999996,1,0,160,159,1,159,-125,-125,0,13,13,0.481,74,0.5,-0.5,-0.5,-0.5,-0.5,country,2020-06-26_11h04.47.593,Tymula Experiment,3.2.3,MacIntel,60
,,left,1.028000116,1,0,160,127,1,159,-50,-50,0,13,13,0.481,74,0.5,-0.5,-0.5,-0.5,-0.5,country,2020-06-26_11h04.47.593,Tymula Experiment,3.2.3,MacIntel,60
,,left,1.630000114,1,0,160,145,1,159,-125,-125,0,25,75,0,0,0.5,-0.5,-0.5,-0.5,-0.5,country,2020-06-26_11h04.47.593,Tymula Experiment,3.2.3,MacIntel,60
,,left,3.504000187,1,0,160,105,1,159,50,50,0,25,75,0,0,-0.5,0.5,0.5,0.5,0.5,country,2020-06-26_11h04.47.593,Tymula Experiment,3.2.3,MacIntel,60
,,right,3.20600009,1,0,160,136,1,159,125,125,0,13,87,0,0,0.5,-0.5,-0.5,-0.5,-0.5,country,2020-06-26_11h04.47.593,Tymula Experiment,3.2.3,MacIntel,60
,,left,2.6650002,1,0,160,100,1,159,50,50,0,75,25,0,0,-0.5,0.5,0.5,0.5,0.5,country,2020-06-26_11h04.47.593,Tymula Experiment,3.2.3,MacIntel,60
,,right,1.886000156,1,0,160,144,1,159,-125,-125,0,13,87,0,0,-0.5,0.5,0.5,0.5,0.5,country,2020-06-26_11h04.47.593,Tymula Experiment,3.2.3,MacIntel,60
,,right,1.155999899,1,0,160,94,1,159,-20,-20,0,25,25,0.325,50,-0.5,0.5,0.5,0.5,0.5,country,2020-06-26_11h04.47.593,Tymula Experiment,3.2.3,MacIntel,60
,,left,2.896000147,1,0,160,107,1,159,50,50,0,50,50,0,0,-0.5,0.5,0.5,0.5,0.5,country,2020-06-26_11h04.47.593,Tymula Experiment,3.2.3,MacIntel,60
,,right,1.192000151,1,0,160,27,1,159,-5,-5,0,50,50,0,0,-0.5,0.5,0.5,0.5,0.5,country,2020-06-26_11h04.47.593,Tymula Experiment,3.2.3,MacIntel,60
,,left,1.359999895,1,0,160,36,1,159,8,8,0,75,25,0,0,-0.5,0.5,0.5,0.5,0.5,country,2020-06-26_11h04.47.593,Tymula Experiment,3.2.3,MacIntel,60
,,right,1.375,1,0,160,155,1,159,-125,-125,0,50,50,0,0,-0.5,0.5,0.5,0.5,0.5,country,2020-06-26_11h04.47.593,Tymula Experiment,3.2.3,MacIntel,60
,,right,3.468000174,1,0,160,106,1,159,50,50,0,38,62,0,0,0.5,-0.5,-0.5,-0.5,-0.5,country,2020-06-26_11h04.47.593,Tymula Experiment,3.2.3,MacIntel,60
,,left,2.171000242,1,0,160,152,1,159,-125,-125,0,13,87,0,0,0.5,-0.5,-0.5,-0.5,-0.5,country,2020-06-26_11h04.47.593,Tymula Experiment,3.2.3,MacIntel,60
,,right,5.869000196,1,0,160,65,1,159,20,20,0,25,75,0,0,0.5,-0.5,-0.5,-0.5,-0.5,country,2020-06-26_11h04.47.593,Tymula Experiment,3.2.3,MacIntel,60
,,right,4.960999966,1,0,160,59,1,159,-8,-8,0,50,50,0,0,-0.5,0.5,0.5,0.5,0.5,country,2020-06-26_11h04.47.593,Tymula Experiment,3.2.3,MacIntel,60
,,right,6.862000227,1,0,160,8,1,159,5,5,0,13,87,0,0,0.5,-0.5,-0.5,-0.5,-0.5,country,2020-06-26_11h04.47.593,Tymula Experiment,3.2.3,MacIntel,60
,,right,7.528000116,1,0,160,112,1,159,-50,-50,0,13,87,0,0,-0.5,0.5,0.5,0.5,0.5,country,2020-06-26_11h04.47.593,Tymula Experiment,3.2.3,MacIntel,60
,,right,1.309000254,1,0,160,84,1,159,-20,-20,0,75,25,0,0,-0.5,0.5,0.5,0.5,0.5,country,2020-06-26_11h04.47.593,Tymula Experiment,3.2.3,MacIntel,60
,,left,3.253000259,1,0,160,69,1,159,20,20,0,38,38,0.156,24,-0.5,0.5,0.5,0.5,0.5,country,2020-06-26_11h04.47.593,Tymula Experiment,3.2.3,MacIntel,60
,,right,1.419000149,1,0,160,91,1,159,-20,-20,0,50,50,0,0,-0.5,0.5,0.5,0.5,0.5,country,2020-06-26_11h04.47.593,Tymula Experiment,3.2.3,MacIntel,60
,,left,1.929000139,1,0,160,4,1,159,5,5,0,75,25,0,0,-0.5,0.5,0.5,0.5,0.5,country,2020-06-26_11h04.47.593,Tymula Experiment,3.2.3,MacIntel,60
,,left,5.168000221,1,0,160,56,1,159,-8,-8,0,13,87,0,0,0.5,-0.5,-0.5,-0.5,-0.5,country,2020-06-26_11h04.47.593,Tymula Experiment,3.2.3,MacIntel,60
,,right,1.767000198,1,0,160,16,1,159,-5,-5,0,13,87,0,0,-0.5,0.5,0.5,0.5,0.5,country,2020-06-26_11h04.47.593,Tymula Experiment,3.2.3,MacIntel,60
,,right,4.695000172,1,0,160,74,1,159,20,20,0,38,62,0,0,0.5,-0.5,-0.5,-0.5,-0.5,country,2020-06-26_11h04.47.593,Tymula Experiment,3.2.3,MacIntel,60
,,right,5.245000124,1,0,160,20,1,159,-5,-5,0,75,25,0,0,-0.5,0.5,0.5,0.5,0.5,country,2020-06-26_11h04.47.593,Tymula Experiment,3.2.3,MacIntel,60
,,left,1.943000078,1,0,160,12,1,159,5,5,0,75,25,0,0,-0.5,0.5,0.5,0.5,0.5,country,2020-06-26_11h04.47.593,Tymula Experiment,3.2.3,MacIntel,60
,,left,7.573000193,1,0,160,150,1,159,-125,-125,0,25,25,0.325,50,0.5,-0.5,-0.5,-0.5,-0.5,country,2020-06-26_11h04.47.593,Tymula Experiment,3.2.3,MacIntel,60
,,right,3.435000181,1,0,160,30,1,159,-5,-5,0,25,25,0.325,50,-0.5,0.5,0.5,0.5,0.5,country,2020-06-26_11h04.47.593,Tymula Experiment,3.2.3,MacIntel,60
,,left,3.489000082,1,0,160,130,1,159,125,125,0,38,62,0,0,-0.5,0.5,0.5,0.5,0.5,country,2020-06-26_11h04.47.593,Tymula Experiment,3.2.3,MacIntel,60
,,right,5.292999983,1,0,160,60,1,159,-8,-8,0,75,25,0,0,-0.5,0.5,0.5,0.5,0.5,country,2020-06-26_11h04.47.593,Tymula Experiment,3.2.3,MacIntel,60
,,right,2.140000105,1,0,160,149,1,159,-125,-125,0,38,38,0.156,24,-0.5,0.5,0.5,0.5,0.5,country,2020-06-26_11h04.47.593,Tymula Experiment,3.2.3,MacIntel,60
,,left,1.901000023,1,0,160,22,1,159,-5,-5,0,25,25,0.325,50,0.5,-0.5,-0.5,-0.5,-0.5,country,2020-06-26_11h04.47.593,Tymula Experiment,3.2.3,MacIntel,60
,,right,2.147000074,1,0,160,141,1,159,125,125,0,38,38,0.156,24,0.5,-0.5,-0.5,-0.5,-0.5,country,2020-06-26_11h04.47.593,Tymula Experiment,3.2.3,MacIntel,60
,,left,1.441999912,1,0,160,98,1,159,50,50,0,38,62,0,0,-0.5,0.5,0.5,0.5,0.5,country,2020-06-26_11h04.47.593,Tymula Experiment,3.2.3,MacIntel,60
,,left,1.541000128,1,0,160,103,1,159,50,50,0,13,13,0.481,74,-0.5,0.5,0.5,0.5,0.5,country,2020-06-26_11h04.47.593,Tymula Experiment,3.2.3,MacIntel,60
,,right,1.707999945,1,0,160,124,1,159,-50,-50,0,75,25,0,0,-0.5,0.5,0.5,0.5,0.5,country,2020-06-26_11h04.47.593,Tymula Experiment,3.2.3,MacIntel,60
,,right,1.611000299,1,0,160,33,1,159,8,8,0,25,75,0,0,0.5,-0.5,-0.5,-0.5,-0.5,country,2020-06-26_11h04.47.593,Tymula Experiment,3.2.3,MacIntel,60
,,right,1.301000118,1,0,160,42,1,159,8,8,0,38,62,0,0,0.5,-0.5,-0.5,-0.5,-0.5,country,2020-06-26_11h04.47.593,Tymula Experiment,3.2.3,MacIntel,60
,,right,3.726000071,1,0,160,25,1,159,-5,-5,0,25,75,0,0,-0.5,0.5,0.5,0.5,0.5,country,2020-06-26_11h04.47.593,Tymula Experiment,3.2.3,MacIntel,60
,,right,2.695000172,1,0,160,97,1,159,50,50,0,25,75,0,0,0.5,-0.5,-0.5,-0.5,-0.5,country,2020-06-26_11h04.47.593,Tymula Experiment,3.2.3,MacIntel,60
,,right,0.623000145,1,0,160,143,1,159,125,125,0,13,13,0.481,74,0.5,-0.5,-0.5,-0.5,-0.5,country,2020-06-26_11h04.47.593,Tymula Experiment,3.2.3,MacIntel,60
,,left,1.382000208,1,0,160,78,1,159,20,20,0,25,25,0.325,50,-0.5,0.5,0.5,0.5,0.5,country,2020-06-26_11h04.47.593,Tymula Experiment,3.2.3,MacIntel,60
,,left,1.997999907,1,0,160,51,1,159,-8,-8,0,50,50,0,0,0.5,-0.5,-0.5,-0.5,-0.5,country,2020-06-26_11h04.47.593,Tymula Experiment,3.2.3,MacIntel,60
,,right,1.59800005,1,0,160,48,1,159,-8,-8,0,13,87,0,0,-0.5,0.5,0.5,0.5,0.5,country,2020-06-26_11h04.47.593,Tymula Experiment,3.2.3,MacIntel,60
,,right,1.459000111,1,0,160,13,1,159,5,5,0,38,38,0.156,24,0.5,-0.5,-0.5,-0.5,-0.5,country,2020-06-26_11h04.47.593,Tymula Experiment,3.2.3,MacIntel,60
,,left,1.014000177,1,0,160,122,1,159,-50,-50,0,38,62,0,0,0.5,-0.5,-0.5,-0.5,-0.5,country,2020-06-26_11h04.47.593,Tymula Experiment,3.2.3,MacIntel,60
