key_resp_2.keys,key_resp_2.rt,key_resp.keys,key_resp.rt,trials.thisRepN,trials.thisTrialN,trials.thisN,trials.thisIndex,trials.ran,trials.order,Sure,OptionOne,OptionTwo,Risk,Risk2,AmbiguityBarH,Ambiguity,SureXPos,RiskXPos,OptionOneXPos,OptionTwoXPos,RiskX,participant,date,expName,psychopyVersion,OS,frameRate
space,9.927999973,left,5.652999878,1,0,160,115,1,159,-50,-50,0,50,50,0,0,0.5,-0.5,-0.5,-0.5,-0.5,eye,2020-07-07_11h58.00.608,Tymula Experiment,3.2.3,Win32,60
,,right,8.258000135,1,0,160,58,1,159,-8,-8,0,38,62,0,0,0.5,-0.5,-0.5,-0.5,-0.5,eye,2020-07-07_11h58.00.608,Tymula Experiment,3.2.3,Win32,60
,,right,6.745000124,1,0,160,16,1,159,-5,-5,0,13,87,0,0,-0.5,0.5,0.5,0.5,0.5,eye,2020-07-07_11h58.00.608,Tymula Experiment,3.2.3,Win32,60
,,left,6.029999971,1,0,160,38,1,159,8,8,0,25,25,0.325,50,0.5,-0.5,-0.5,-0.5,-0.5,eye,2020-07-07_11h58.00.608,Tymula Experiment,3.2.3,Win32,60
,,right,11.57499981,1,0,160,30,1,159,-5,-5,0,25,25,0.325,50,-0.5,0.5,0.5,0.5,0.5,eye,2020-07-07_11h58.00.608,Tymula Experiment,3.2.3,Win32,60
,,right,1.330999851,1,0,160,52,1,159,-8,-8,0,75,25,0,0,-0.5,0.5,0.5,0.5,0.5,eye,2020-07-07_11h58.00.608,Tymula Experiment,3.2.3,Win32,60
,,right,2.481999874,1,0,160,48,1,159,-8,-8,0,13,87,0,0,-0.5,0.5,0.5,0.5,0.5,eye,2020-07-07_11h58.00.608,Tymula Experiment,3.2.3,Win32,60
,,left,4.028999805,1,0,160,14,1,159,5,5,0,25,25,0.325,50,-0.5,0.5,0.5,0.5,0.5,eye,2020-07-07_11h58.00.608,Tymula Experiment,3.2.3,Win32,60
,,right,2.125999928,1,0,160,25,1,159,-5,-5,0,25,75,0,0,-0.5,0.5,0.5,0.5,0.5,eye,2020-07-07_11h58.00.608,Tymula Experiment,3.2.3,Win32,60
,,right,4.822000027,1,0,160,106,1,159,50,50,0,38,62,0,0,0.5,-0.5,-0.5,-0.5,-0.5,eye,2020-07-07_11h58.00.608,Tymula Experiment,3.2.3,Win32,60
,,right,5.805999994,1,0,160,146,1,159,-125,-125,0,38,62,0,0,-0.5,0.5,0.5,0.5,0.5,eye,2020-07-07_11h58.00.608,Tymula Experiment,3.2.3,Win32,60
,,left,4.144999981,1,0,160,12,1,159,5,5,0,75,25,0,0,-0.5,0.5,0.5,0.5,0.5,eye,2020-07-07_11h58.00.608,Tymula Experiment,3.2.3,Win32,60
,,left,11.17499995,1,0,160,83,1,159,-20,-20,0,50,50,0,0,0.5,-0.5,-0.5,-0.5,-0.5,eye,2020-07-07_11h58.00.608,Tymula Experiment,3.2.3,Win32,60
,,right,4.129999876,1,0,160,33,1,159,8,8,0,25,75,0,0,0.5,-0.5,-0.5,-0.5,-0.5,eye,2020-07-07_11h58.00.608,Tymula Experiment,3.2.3,Win32,60
,,right,6.832999945,1,0,160,144,1,159,-125,-125,0,13,87,0,0,-0.5,0.5,0.5,0.5,0.5,eye,2020-07-07_11h58.00.608,Tymula Experiment,3.2.3,Win32,60
,,right,6.328999758,1,0,160,109,1,159,50,50,0,38,38,0.156,24,0.5,-0.5,-0.5,-0.5,-0.5,eye,2020-07-07_11h58.00.608,Tymula Experiment,3.2.3,Win32,60
,,left,7.846999884,1,0,160,147,1,159,-125,-125,0,50,50,0,0,0.5,-0.5,-0.5,-0.5,-0.5,eye,2020-07-07_11h58.00.608,Tymula Experiment,3.2.3,Win32,60
,,left,3.947000027,1,0,160,19,1,159,-5,-5,0,50,50,0,0,0.5,-0.5,-0.5,-0.5,-0.5,eye,2020-07-07_11h58.00.608,Tymula Experiment,3.2.3,Win32,60
,,right,1.747999907,1,0,160,129,1,159,125,125,0,25,75,0,0,0.5,-0.5,-0.5,-0.5,-0.5,eye,2020-07-07_11h58.00.608,Tymula Experiment,3.2.3,Win32,60
,,right,10.89299989,1,0,160,54,1,159,-8,-8,0,25,25,0.325,50,0.5,-0.5,-0.5,-0.5,-0.5,eye,2020-07-07_11h58.00.608,Tymula Experiment,3.2.3,Win32,60
,,right,2.544999838,1,0,160,57,1,159,-8,-8,0,25,75,0,0,-0.5,0.5,0.5,0.5,0.5,eye,2020-07-07_11h58.00.608,Tymula Experiment,3.2.3,Win32,60
,,left,2.263000011,1,0,160,137,1,159,125,125,0,25,75,0,0,-0.5,0.5,0.5,0.5,0.5,eye,2020-07-07_11h58.00.608,Tymula Experiment,3.2.3,Win32,60
,,right,2.499000072,1,0,160,97,1,159,50,50,0,25,75,0,0,0.5,-0.5,-0.5,-0.5,-0.5,eye,2020-07-07_11h58.00.608,Tymula Experiment,3.2.3,Win32,60
,,left,2.512000084,1,0,160,2,1,159,5,5,0,38,62,0,0,-0.5,0.5,0.5,0.5,0.5,eye,2020-07-07_11h58.00.608,Tymula Experiment,3.2.3,Win32,60
,,right,1.907999992,1,0,160,114,1,159,-50,-50,0,38,62,0,0,-0.5,0.5,0.5,0.5,0.5,eye,2020-07-07_11h58.00.608,Tymula Experiment,3.2.3,Win32,60
,,left,3.145999908,1,0,160,98,1,159,50,50,0,38,62,0,0,-0.5,0.5,0.5,0.5,0.5,eye,2020-07-07_11h58.00.608,Tymula Experiment,3.2.3,Win32,60
,,left,6.447999954,1,0,160,36,1,159,8,8,0,75,25,0,0,-0.5,0.5,0.5,0.5,0.5,eye,2020-07-07_11h58.00.608,Tymula Experiment,3.2.3,Win32,60
,,left,8.105000019,1,0,160,22,1,159,-5,-5,0,25,25,0.325,50,0.5,-0.5,-0.5,-0.5,-0.5,eye,2020-07-07_11h58.00.608,Tymula Experiment,3.2.3,Win32,60
,,left,1.194999933,1,0,160,105,1,159,50,50,0,25,75,0,0,-0.5,0.5,0.5,0.5,0.5,eye,2020-07-07_11h58.00.608,Tymula Experiment,3.2.3,Win32,60
,,right,5.626999855,1,0,160,18,1,159,-5,-5,0,38,62,0,0,-0.5,0.5,0.5,0.5,0.5,eye,2020-07-07_11h58.00.608,Tymula Experiment,3.2.3,Win32,60
,,left,13.99699998,1,0,160,49,1,159,-8,-8,0,25,75,0,0,0.5,-0.5,-0.5,-0.5,-0.5,eye,2020-07-07_11h58.00.608,Tymula Experiment,3.2.3,Win32,60
,,right,4.010999918,1,0,160,13,1,159,5,5,0,38,38,0.156,24,0.5,-0.5,-0.5,-0.5,-0.5,eye,2020-07-07_11h58.00.608,Tymula Experiment,3.2.3,Win32,60
,,right,9.500999928,1,0,160,47,1,159,8,8,0,13,13,0.481,74,0.5,-0.5,-0.5,-0.5,-0.5,eye,2020-07-07_11h58.00.608,Tymula Experiment,3.2.3,Win32,60
,,left,4.447999716,1,0,160,152,1,159,-125,-125,0,13,87,0,0,0.5,-0.5,-0.5,-0.5,-0.5,eye,2020-07-07_11h58.00.608,Tymula Experiment,3.2.3,Win32,60
,,right,6.201999903,1,0,160,27,1,159,-5,-5,0,50,50,0,0,-0.5,0.5,0.5,0.5,0.5,eye,2020-07-07_11h58.00.608,Tymula Experiment,3.2.3,Win32,60
,,right,4.154999971,1,0,160,87,1,159,-20,-20,0,13,13,0.481,74,-0.5,0.5,0.5,0.5,0.5,eye,2020-07-07_11h58.00.608,Tymula Experiment,3.2.3,Win32,60
,,right,4.36199975,1,0,160,23,1,159,-5,-5,0,13,13,0.481,74,-0.5,0.5,0.5,0.5,0.5,eye,2020-07-07_11h58.00.608,Tymula Experiment,3.2.3,Win32,60
,,right,6.013999939,1,0,160,10,1,159,5,5,0,38,62,0,0,0.5,-0.5,-0.5,-0.5,-0.5,eye,2020-07-07_11h58.00.608,Tymula Experiment,3.2.3,Win32,60
,,right,5.066999912,1,0,160,62,1,159,-8,-8,0,25,25,0.325,50,-0.5,0.5,0.5,0.5,0.5,eye,2020-07-07_11h58.00.608,Tymula Experiment,3.2.3,Win32,60
,,right,3.148000002,1,0,160,153,1,159,-125,-125,0,25,75,0,0,-0.5,0.5,0.5,0.5,0.5,eye,2020-07-07_11h58.00.608,Tymula Experiment,3.2.3,Win32,60
,,right,3.44299984,1,0,160,28,1,159,-5,-5,0,75,25,0,0,-0.5,0.5,0.5,0.5,0.5,eye,2020-07-07_11h58.00.608,Tymula Experiment,3.2.3,Win32,60
,,left,3.796999931,1,0,160,71,1,159,20,20,0,13,13,0.481,74,-0.5,0.5,0.5,0.5,0.5,eye,2020-07-07_11h58.00.608,Tymula Experiment,3.2.3,Win32,60
,,left,4.102999926,1,0,160,64,1,159,20,20,0,13,87,0,0,-0.5,0.5,0.5,0.5,0.5,eye,2020-07-07_11h58.00.608,Tymula Experiment,3.2.3,Win32,60
,,left,6.363999844,1,0,160,56,1,159,-8,-8,0,13,87,0,0,0.5,-0.5,-0.5,-0.5,-0.5,eye,2020-07-07_11h58.00.608,Tymula Experiment,3.2.3,Win32,60
,,left,4.38499999,1,0,160,76,1,159,20,20,0,75,25,0,0,-0.5,0.5,0.5,0.5,0.5,eye,2020-07-07_11h58.00.608,Tymula Experiment,3.2.3,Win32,60
,,right,3.714999914,1,0,160,119,1,159,-50,-50,0,13,13,0.481,74,-0.5,0.5,0.5,0.5,0.5,eye,2020-07-07_11h58.00.608,Tymula Experiment,3.2.3,Win32,60
,,right,1.865999937,1,0,160,59,1,159,-8,-8,0,50,50,0,0,-0.5,0.5,0.5,0.5,0.5,eye,2020-07-07_11h58.00.608,Tymula Experiment,3.2.3,Win32,60
,,right,3.453999996,1,0,160,92,1,159,-20,-20,0,75,25,0,0,-0.5,0.5,0.5,0.5,0.5,eye,2020-07-07_11h58.00.608,Tymula Experiment,3.2.3,Win32,60
,,left,4.355000019,1,0,160,108,1,159,50,50,0,75,25,0,0,-0.5,0.5,0.5,0.5,0.5,eye,2020-07-07_11h58.00.608,Tymula Experiment,3.2.3,Win32,60
,,left,4.629999876,1,0,160,61,1,159,-8,-8,0,38,38,0.156,24,0.5,-0.5,-0.5,-0.5,-0.5,eye,2020-07-07_11h58.00.608,Tymula Experiment,3.2.3,Win32,60
,,right,3.045000076,1,0,160,91,1,159,-20,-20,0,50,50,0,0,-0.5,0.5,0.5,0.5,0.5,eye,2020-07-07_11h58.00.608,Tymula Experiment,3.2.3,Win32,60
,,left,3.909999847,1,0,160,125,1,159,-50,-50,0,38,38,0.156,24,0.5,-0.5,-0.5,-0.5,-0.5,eye,2020-07-07_11h58.00.608,Tymula Experiment,3.2.3,Win32,60
,,right,3.194000006,1,0,160,72,1,159,20,20,0,13,87,0,0,0.5,-0.5,-0.5,-0.5,-0.5,eye,2020-07-07_11h58.00.608,Tymula Experiment,3.2.3,Win32,60
,,left,3.370000124,1,0,160,127,1,159,-50,-50,0,13,13,0.481,74,0.5,-0.5,-0.5,-0.5,-0.5,eye,2020-07-07_11h58.00.608,Tymula Experiment,3.2.3,Win32,60
,,left,2.78399992,1,0,160,26,1,159,-5,-5,0,38,62,0,0,0.5,-0.5,-0.5,-0.5,-0.5,eye,2020-07-07_11h58.00.608,Tymula Experiment,3.2.3,Win32,60
,,right,2.684999943,1,0,160,85,1,159,-20,-20,0,38,38,0.156,24,-0.5,0.5,0.5,0.5,0.5,eye,2020-07-07_11h58.00.608,Tymula Experiment,3.2.3,Win32,60
,,right,3.103999853,1,0,160,99,1,159,50,50,0,50,50,0,0,0.5,-0.5,-0.5,-0.5,-0.5,eye,2020-07-07_11h58.00.608,Tymula Experiment,3.2.3,Win32,60
,,left,2.774999857,1,0,160,118,1,159,-50,-50,0,25,25,0.325,50,0.5,-0.5,-0.5,-0.5,-0.5,eye,2020-07-07_11h58.00.608,Tymula Experiment,3.2.3,Win32,60
,,left,4.31099987,1,0,160,139,1,159,125,125,0,50,50,0,0,-0.5,0.5,0.5,0.5,0.5,eye,2020-07-07_11h58.00.608,Tymula Experiment,3.2.3,Win32,60
,,left,2.541999817,1,0,160,132,1,159,125,125,0,75,25,0,0,-0.5,0.5,0.5,0.5,0.5,eye,2020-07-07_11h58.00.608,Tymula Experiment,3.2.3,Win32,60
,,left,6.281999826,1,0,160,96,1,159,50,50,0,13,87,0,0,-0.5,0.5,0.5,0.5,0.5,eye,2020-07-07_11h58.00.608,Tymula Experiment,3.2.3,Win32,60
,,left,4.395999908,1,0,160,29,1,159,-5,-5,0,38,38,0.156,24,0.5,-0.5,-0.5,-0.5,-0.5,eye,2020-07-07_11h58.00.608,Tymula Experiment,3.2.3,Win32,60
,,left,2.263999939,1,0,160,145,1,159,-125,-125,0,25,75,0,0,0.5,-0.5,-0.5,-0.5,-0.5,eye,2020-07-07_11h58.00.608,Tymula Experiment,3.2.3,Win32,60
,,right,3.565999985,1,0,160,53,1,159,-8,-8,0,38,38,0.156,24,-0.5,0.5,0.5,0.5,0.5,eye,2020-07-07_11h58.00.608,Tymula Experiment,3.2.3,Win32,60
,,right,2.230000019,1,0,160,143,1,159,125,125,0,13,13,0.481,74,0.5,-0.5,-0.5,-0.5,-0.5,eye,2020-07-07_11h58.00.608,Tymula Experiment,3.2.3,Win32,60
,,right,3.342000008,1,0,160,131,1,159,125,125,0,50,50,0,0,0.5,-0.5,-0.5,-0.5,-0.5,eye,2020-07-07_11h58.00.608,Tymula Experiment,3.2.3,Win32,60
,,left,3.411999941,1,0,160,44,1,159,8,8,0,75,25,0,0,-0.5,0.5,0.5,0.5,0.5,eye,2020-07-07_11h58.00.608,Tymula Experiment,3.2.3,Win32,60
,,left,2.826999903,1,0,160,66,1,159,20,20,0,38,62,0,0,-0.5,0.5,0.5,0.5,0.5,eye,2020-07-07_11h58.00.608,Tymula Experiment,3.2.3,Win32,60
,,left,2.697999954,1,0,160,78,1,159,20,20,0,25,25,0.325,50,-0.5,0.5,0.5,0.5,0.5,eye,2020-07-07_11h58.00.608,Tymula Experiment,3.2.3,Win32,60
,,right,3.277999878,1,0,160,42,1,159,8,8,0,38,62,0,0,0.5,-0.5,-0.5,-0.5,-0.5,eye,2020-07-07_11h58.00.608,Tymula Experiment,3.2.3,Win32,60
,,left,4.0849998,1,0,160,130,1,159,125,125,0,38,62,0,0,-0.5,0.5,0.5,0.5,0.5,eye,2020-07-07_11h58.00.608,Tymula Experiment,3.2.3,Win32,60
,,right,1.945999861,1,0,160,80,1,159,-20,-20,0,13,87,0,0,-0.5,0.5,0.5,0.5,0.5,eye,2020-07-07_11h58.00.608,Tymula Experiment,3.2.3,Win32,60
,,left,2.529999971,1,0,160,31,1,159,-5,-5,0,13,13,0.481,74,0.5,-0.5,-0.5,-0.5,-0.5,eye,2020-07-07_11h58.00.608,Tymula Experiment,3.2.3,Win32,60
,,left,4.954999924,1,0,160,4,1,159,5,5,0,75,25,0,0,-0.5,0.5,0.5,0.5,0.5,eye,2020-07-07_11h58.00.608,Tymula Experiment,3.2.3,Win32,60
,,left,4.421999931,1,0,160,93,1,159,-20,-20,0,38,38,0.156,24,0.5,-0.5,-0.5,-0.5,-0.5,eye,2020-07-07_11h58.00.608,Tymula Experiment,3.2.3,Win32,60
,,right,2.718999863,1,0,160,158,1,159,-125,-125,0,25,25,0.325,50,-0.5,0.5,0.5,0.5,0.5,eye,2020-07-07_11h58.00.608,Tymula Experiment,3.2.3,Win32,60
,,left,2.191999912,1,0,160,63,1,159,-8,-8,0,13,13,0.481,74,0.5,-0.5,-0.5,-0.5,-0.5,eye,2020-07-07_11h58.00.608,Tymula Experiment,3.2.3,Win32,60
,,right,4.652999878,1,0,160,138,1,159,125,125,0,38,62,0,0,0.5,-0.5,-0.5,-0.5,-0.5,eye,2020-07-07_11h58.00.608,Tymula Experiment,3.2.3,Win32,60
,,left,3.366999865,1,0,160,32,1,159,8,8,0,13,87,0,0,-0.5,0.5,0.5,0.5,0.5,eye,2020-07-07_11h58.00.608,Tymula Experiment,3.2.3,Win32,60
,,right,3.37899971,1,0,160,1,1,159,5,5,0,25,75,0,0,0.5,-0.5,-0.5,-0.5,-0.5,eye,2020-07-07_11h58.00.608,Tymula Experiment,3.2.3,Win32,60
,,right,2.55099988,1,0,160,8,1,159,5,5,0,13,87,0,0,0.5,-0.5,-0.5,-0.5,-0.5,eye,2020-07-07_11h58.00.608,Tymula Experiment,3.2.3,Win32,60
,,right,4.796000004,1,0,160,74,1,159,20,20,0,38,62,0,0,0.5,-0.5,-0.5,-0.5,-0.5,eye,2020-07-07_11h58.00.608,Tymula Experiment,3.2.3,Win32,60
,,right,3.359999895,1,0,160,77,1,159,20,20,0,38,38,0.156,24,0.5,-0.5,-0.5,-0.5,-0.5,eye,2020-07-07_11h58.00.608,Tymula Experiment,3.2.3,Win32,60
,,left,2.206999779,1,0,160,154,1,159,-125,-125,0,38,62,0,0,0.5,-0.5,-0.5,-0.5,-0.5,eye,2020-07-07_11h58.00.608,Tymula Experiment,3.2.3,Win32,60
,,right,2.25999999,1,0,160,94,1,159,-20,-20,0,25,25,0.325,50,-0.5,0.5,0.5,0.5,0.5,eye,2020-07-07_11h58.00.608,Tymula Experiment,3.2.3,Win32,60
,,left,2.426999807,1,0,160,120,1,159,-50,-50,0,13,87,0,0,0.5,-0.5,-0.5,-0.5,-0.5,eye,2020-07-07_11h58.00.608,Tymula Experiment,3.2.3,Win32,60
,,left,1.94299984,1,0,160,110,1,159,50,50,0,25,25,0.325,50,-0.5,0.5,0.5,0.5,0.5,eye,2020-07-07_11h58.00.608,Tymula Experiment,3.2.3,Win32,60
,,left,1.991999865,1,0,160,75,1,159,20,20,0,50,50,0,0,-0.5,0.5,0.5,0.5,0.5,eye,2020-07-07_11h58.00.608,Tymula Experiment,3.2.3,Win32,60
,,left,1.703000069,1,0,160,107,1,159,50,50,0,50,50,0,0,-0.5,0.5,0.5,0.5,0.5,eye,2020-07-07_11h58.00.608,Tymula Experiment,3.2.3,Win32,60
,,left,3.983999968,1,0,160,113,1,159,-50,-50,0,25,75,0,0,0.5,-0.5,-0.5,-0.5,-0.5,eye,2020-07-07_11h58.00.608,Tymula Experiment,3.2.3,Win32,60
,,left,2.637000084,1,0,160,39,1,159,8,8,0,13,13,0.481,74,-0.5,0.5,0.5,0.5,0.5,eye,2020-07-07_11h58.00.608,Tymula Experiment,3.2.3,Win32,60
,,right,3.052999973,1,0,160,123,1,159,-50,-50,0,50,50,0,0,-0.5,0.5,0.5,0.5,0.5,eye,2020-07-07_11h58.00.608,Tymula Experiment,3.2.3,Win32,60
,,left,3.476999998,1,0,160,17,1,159,-5,-5,0,25,75,0,0,0.5,-0.5,-0.5,-0.5,-0.5,eye,2020-07-07_11h58.00.608,Tymula Experiment,3.2.3,Win32,60
,,left,3.38499999,1,0,160,81,1,159,-20,-20,0,25,75,0,0,0.5,-0.5,-0.5,-0.5,-0.5,eye,2020-07-07_11h58.00.608,Tymula Experiment,3.2.3,Win32,60
,,left,4.152999878,1,0,160,41,1,159,8,8,0,25,75,0,0,-0.5,0.5,0.5,0.5,0.5,eye,2020-07-07_11h58.00.608,Tymula Experiment,3.2.3,Win32,60
,,right,2.336999893,1,0,160,148,1,159,-125,-125,0,75,25,0,0,-0.5,0.5,0.5,0.5,0.5,eye,2020-07-07_11h58.00.608,Tymula Experiment,3.2.3,Win32,60
,,left,7.815999985,1,0,160,65,1,159,20,20,0,25,75,0,0,0.5,-0.5,-0.5,-0.5,-0.5,eye,2020-07-07_11h58.00.608,Tymula Experiment,3.2.3,Win32,60
,,right,7.231999874,1,0,160,82,1,159,-20,-20,0,38,62,0,0,-0.5,0.5,0.5,0.5,0.5,eye,2020-07-07_11h58.00.608,Tymula Experiment,3.2.3,Win32,60
,,left,2.335999966,1,0,160,9,1,159,5,5,0,25,75,0,0,-0.5,0.5,0.5,0.5,0.5,eye,2020-07-07_11h58.00.608,Tymula Experiment,3.2.3,Win32,60
,,right,3.443000078,1,0,160,21,1,159,-5,-5,0,38,38,0.156,24,-0.5,0.5,0.5,0.5,0.5,eye,2020-07-07_11h58.00.608,Tymula Experiment,3.2.3,Win32,60
,,right,1.892999887,1,0,160,155,1,159,-125,-125,0,50,50,0,0,-0.5,0.5,0.5,0.5,0.5,eye,2020-07-07_11h58.00.608,Tymula Experiment,3.2.3,Win32,60
,,right,2.683999777,1,0,160,3,1,159,5,5,0,50,50,0,0,0.5,-0.5,-0.5,-0.5,-0.5,eye,2020-07-07_11h58.00.608,Tymula Experiment,3.2.3,Win32,60
,,right,3.66899991,1,0,160,60,1,159,-8,-8,0,75,25,0,0,-0.5,0.5,0.5,0.5,0.5,eye,2020-07-07_11h58.00.608,Tymula Experiment,3.2.3,Win32,60
,,left,3.414999962,1,0,160,157,1,159,-125,-125,0,38,38,0.156,24,0.5,-0.5,-0.5,-0.5,-0.5,eye,2020-07-07_11h58.00.608,Tymula Experiment,3.2.3,Win32,60
,,left,2.491999865,1,0,160,140,1,159,125,125,0,75,25,0,0,-0.5,0.5,0.5,0.5,0.5,eye,2020-07-07_11h58.00.608,Tymula Experiment,3.2.3,Win32,60
,,left,3.827000141,1,0,160,135,1,159,125,125,0,13,13,0.481,74,-0.5,0.5,0.5,0.5,0.5,eye,2020-07-07_11h58.00.608,Tymula Experiment,3.2.3,Win32,60
,,right,2.06099987,1,0,160,20,1,159,-5,-5,0,75,25,0,0,-0.5,0.5,0.5,0.5,0.5,eye,2020-07-07_11h58.00.608,Tymula Experiment,3.2.3,Win32,60
,,left,1.763000011,1,0,160,73,1,159,20,20,0,25,75,0,0,-0.5,0.5,0.5,0.5,0.5,eye,2020-07-07_11h58.00.608,Tymula Experiment,3.2.3,Win32,60
,,left,2.309000015,1,0,160,159,1,159,-125,-125,0,13,13,0.481,74,0.5,-0.5,-0.5,-0.5,-0.5,eye,2020-07-07_11h58.00.608,Tymula Experiment,3.2.3,Win32,60
,,right,1.950000048,1,0,160,70,1,159,20,20,0,25,25,0.325,50,0.5,-0.5,-0.5,-0.5,-0.5,eye,2020-07-07_11h58.00.608,Tymula Experiment,3.2.3,Win32,60
,,right,1.774999857,1,0,160,50,1,159,-8,-8,0,38,62,0,0,-0.5,0.5,0.5,0.5,0.5,eye,2020-07-07_11h58.00.608,Tymula Experiment,3.2.3,Win32,60
,,right,2.260999918,1,0,160,104,1,159,50,50,0,13,87,0,0,0.5,-0.5,-0.5,-0.5,-0.5,eye,2020-07-07_11h58.00.608,Tymula Experiment,3.2.3,Win32,60
,,left,2.565999746,1,0,160,5,1,159,5,5,0,38,38,0.156,24,-0.5,0.5,0.5,0.5,0.5,eye,2020-07-07_11h58.00.608,Tymula Experiment,3.2.3,Win32,60
,,right,3.025999784,1,0,160,45,1,159,8,8,0,38,38,0.156,24,0.5,-0.5,-0.5,-0.5,-0.5,eye,2020-07-07_11h58.00.608,Tymula Experiment,3.2.3,Win32,60
,,right,2.561000109,1,0,160,117,1,159,-50,-50,0,38,38,0.156,24,-0.5,0.5,0.5,0.5,0.5,eye,2020-07-07_11h58.00.608,Tymula Experiment,3.2.3,Win32,60
,,right,2.51699996,1,0,160,102,1,159,50,50,0,25,25,0.325,50,0.5,-0.5,-0.5,-0.5,-0.5,eye,2020-07-07_11h58.00.608,Tymula Experiment,3.2.3,Win32,60
,,left,2.811000109,1,0,160,46,1,159,8,8,0,25,25,0.325,50,-0.5,0.5,0.5,0.5,0.5,eye,2020-07-07_11h58.00.608,Tymula Experiment,3.2.3,Win32,60
,,right,3.016999722,1,0,160,67,1,159,20,20,0,50,50,0,0,0.5,-0.5,-0.5,-0.5,-0.5,eye,2020-07-07_11h58.00.608,Tymula Experiment,3.2.3,Win32,60
,,left,1.427000046,1,0,160,122,1,159,-50,-50,0,38,62,0,0,0.5,-0.5,-0.5,-0.5,-0.5,eye,2020-07-07_11h58.00.608,Tymula Experiment,3.2.3,Win32,60
,,right,1.832999945,1,0,160,126,1,159,-50,-50,0,25,25,0.325,50,-0.5,0.5,0.5,0.5,0.5,eye,2020-07-07_11h58.00.608,Tymula Experiment,3.2.3,Win32,60
,,left,1.861000061,1,0,160,0,1,159,5,5,0,13,87,0,0,-0.5,0.5,0.5,0.5,0.5,eye,2020-07-07_11h58.00.608,Tymula Experiment,3.2.3,Win32,60
,,left,2.640999794,1,0,160,86,1,159,-20,-20,0,25,25,0.325,50,0.5,-0.5,-0.5,-0.5,-0.5,eye,2020-07-07_11h58.00.608,Tymula Experiment,3.2.3,Win32,60
,,left,2.142999887,1,0,160,100,1,159,50,50,0,75,25,0,0,-0.5,0.5,0.5,0.5,0.5,eye,2020-07-07_11h58.00.608,Tymula Experiment,3.2.3,Win32,60
,,right,2.858999968,1,0,160,116,1,159,-50,-50,0,75,25,0,0,-0.5,0.5,0.5,0.5,0.5,eye,2020-07-07_11h58.00.608,Tymula Experiment,3.2.3,Win32,60
,,right,4.108999968,1,0,160,151,1,159,-125,-125,0,13,13,0.481,74,-0.5,0.5,0.5,0.5,0.5,eye,2020-07-07_11h58.00.608,Tymula Experiment,3.2.3,Win32,60
,,right,3.63499999,1,0,160,79,1,159,20,20,0,13,13,0.481,74,0.5,-0.5,-0.5,-0.5,-0.5,eye,2020-07-07_11h58.00.608,Tymula Experiment,3.2.3,Win32,60
,,left,2.427999973,1,0,160,142,1,159,125,125,0,25,25,0.325,50,-0.5,0.5,0.5,0.5,0.5,eye,2020-07-07_11h58.00.608,Tymula Experiment,3.2.3,Win32,60
,,right,1.357999802,1,0,160,84,1,159,-20,-20,0,75,25,0,0,-0.5,0.5,0.5,0.5,0.5,eye,2020-07-07_11h58.00.608,Tymula Experiment,3.2.3,Win32,60
,,left,2.151000023,1,0,160,101,1,159,50,50,0,38,38,0.156,24,-0.5,0.5,0.5,0.5,0.5,eye,2020-07-07_11h58.00.608,Tymula Experiment,3.2.3,Win32,60
,,left,1.64199996,1,0,160,128,1,159,125,125,0,13,87,0,0,-0.5,0.5,0.5,0.5,0.5,eye,2020-07-07_11h58.00.608,Tymula Experiment,3.2.3,Win32,60
,,left,5.802999973,1,0,160,95,1,159,-20,-20,0,13,13,0.481,74,0.5,-0.5,-0.5,-0.5,-0.5,eye,2020-07-07_11h58.00.608,Tymula Experiment,3.2.3,Win32,60
,,right,1.975999832,1,0,160,149,1,159,-125,-125,0,38,38,0.156,24,-0.5,0.5,0.5,0.5,0.5,eye,2020-07-07_11h58.00.608,Tymula Experiment,3.2.3,Win32,60
,,left,4.488999844,1,0,160,37,1,159,8,8,0,38,38,0.156,24,-0.5,0.5,0.5,0.5,0.5,eye,2020-07-07_11h58.00.608,Tymula Experiment,3.2.3,Win32,60
,,left,2.535999775,1,0,160,68,1,159,20,20,0,75,25,0,0,-0.5,0.5,0.5,0.5,0.5,eye,2020-07-07_11h58.00.608,Tymula Experiment,3.2.3,Win32,60
,,right,2.260999918,1,0,160,15,1,159,5,5,0,13,13,0.481,74,0.5,-0.5,-0.5,-0.5,-0.5,eye,2020-07-07_11h58.00.608,Tymula Experiment,3.2.3,Win32,60
,,right,2.844000101,1,0,160,89,1,159,-20,-20,0,25,75,0,0,-0.5,0.5,0.5,0.5,0.5,eye,2020-07-07_11h58.00.608,Tymula Experiment,3.2.3,Win32,60
,,right,2.098999977,1,0,160,134,1,159,125,125,0,25,25,0.325,50,0.5,-0.5,-0.5,-0.5,-0.5,eye,2020-07-07_11h58.00.608,Tymula Experiment,3.2.3,Win32,60
,,right,2.517999887,1,0,160,141,1,159,125,125,0,38,38,0.156,24,0.5,-0.5,-0.5,-0.5,-0.5,eye,2020-07-07_11h58.00.608,Tymula Experiment,3.2.3,Win32,60
,,left,2.076999903,1,0,160,133,1,159,125,125,0,38,38,0.156,24,-0.5,0.5,0.5,0.5,0.5,eye,2020-07-07_11h58.00.608,Tymula Experiment,3.2.3,Win32,60
,,right,2.881999969,1,0,160,6,1,159,5,5,0,25,25,0.325,50,0.5,-0.5,-0.5,-0.5,-0.5,eye,2020-07-07_11h58.00.608,Tymula Experiment,3.2.3,Win32,60
,,left,1.859999895,1,0,160,88,1,159,-20,-20,0,13,87,0,0,0.5,-0.5,-0.5,-0.5,-0.5,eye,2020-07-07_11h58.00.608,Tymula Experiment,3.2.3,Win32,60
,,left,2.338999987,1,0,160,150,1,159,-125,-125,0,25,25,0.325,50,0.5,-0.5,-0.5,-0.5,-0.5,eye,2020-07-07_11h58.00.608,Tymula Experiment,3.2.3,Win32,60
,,right,2.148000002,1,0,160,156,1,159,-125,-125,0,75,25,0,0,-0.5,0.5,0.5,0.5,0.5,eye,2020-07-07_11h58.00.608,Tymula Experiment,3.2.3,Win32,60
,,left,4.625999928,1,0,160,11,1,159,5,5,0,50,50,0,0,-0.5,0.5,0.5,0.5,0.5,eye,2020-07-07_11h58.00.608,Tymula Experiment,3.2.3,Win32,60
,,left,3.181999922,1,0,160,51,1,159,-8,-8,0,50,50,0,0,0.5,-0.5,-0.5,-0.5,-0.5,eye,2020-07-07_11h58.00.608,Tymula Experiment,3.2.3,Win32,60
,,left,3.831999779,1,0,160,43,1,159,8,8,0,50,50,0,0,-0.5,0.5,0.5,0.5,0.5,eye,2020-07-07_11h58.00.608,Tymula Experiment,3.2.3,Win32,60
,,right,4.129999876,1,0,160,35,1,159,8,8,0,50,50,0,0,0.5,-0.5,-0.5,-0.5,-0.5,eye,2020-07-07_11h58.00.608,Tymula Experiment,3.2.3,Win32,60
,,left,2.75999999,1,0,160,7,1,159,5,5,0,13,13,0.481,74,-0.5,0.5,0.5,0.5,0.5,eye,2020-07-07_11h58.00.608,Tymula Experiment,3.2.3,Win32,60
,,left,1.92599988,1,0,160,34,1,159,8,8,0,38,62,0,0,-0.5,0.5,0.5,0.5,0.5,eye,2020-07-07_11h58.00.608,Tymula Experiment,3.2.3,Win32,60
,,left,1.700999975,1,0,160,90,1,159,-20,-20,0,38,62,0,0,0.5,-0.5,-0.5,-0.5,-0.5,eye,2020-07-07_11h58.00.608,Tymula Experiment,3.2.3,Win32,60
,,left,2.343999863,1,0,160,69,1,159,20,20,0,38,38,0.156,24,-0.5,0.5,0.5,0.5,0.5,eye,2020-07-07_11h58.00.608,Tymula Experiment,3.2.3,Win32,60
,,left,1.631999969,1,0,160,103,1,159,50,50,0,13,13,0.481,74,-0.5,0.5,0.5,0.5,0.5,eye,2020-07-07_11h58.00.608,Tymula Experiment,3.2.3,Win32,60
,,left,1.586999893,1,0,160,136,1,159,125,125,0,13,87,0,0,0.5,-0.5,-0.5,-0.5,-0.5,eye,2020-07-07_11h58.00.608,Tymula Experiment,3.2.3,Win32,60
,,right,5.569000006,1,0,160,112,1,159,-50,-50,0,13,87,0,0,-0.5,0.5,0.5,0.5,0.5,eye,2020-07-07_11h58.00.608,Tymula Experiment,3.2.3,Win32,60
,,right,1.88499999,1,0,160,111,1,159,50,50,0,13,13,0.481,74,0.5,-0.5,-0.5,-0.5,-0.5,eye,2020-07-07_11h58.00.608,Tymula Experiment,3.2.3,Win32,60
,,right,2.949999809,1,0,160,40,1,159,8,8,0,13,87,0,0,0.5,-0.5,-0.5,-0.5,-0.5,eye,2020-07-07_11h58.00.608,Tymula Experiment,3.2.3,Win32,60
,,right,3.614000082,1,0,160,55,1,159,-8,-8,0,13,13,0.481,74,-0.5,0.5,0.5,0.5,0.5,eye,2020-07-07_11h58.00.608,Tymula Experiment,3.2.3,Win32,60
,,right,2.743000031,1,0,160,124,1,159,-50,-50,0,75,25,0,0,-0.5,0.5,0.5,0.5,0.5,eye,2020-07-07_11h58.00.608,Tymula Experiment,3.2.3,Win32,60
,,right,3.375999928,1,0,160,121,1,159,-50,-50,0,25,75,0,0,-0.5,0.5,0.5,0.5,0.5,eye,2020-07-07_11h58.00.608,Tymula Experiment,3.2.3,Win32,60
,,left,3.845000029,1,0,160,24,1,159,-5,-5,0,13,87,0,0,0.5,-0.5,-0.5,-0.5,-0.5,eye,2020-07-07_11h58.00.608,Tymula Experiment,3.2.3,Win32,60
