key_resp_2.keys,key_resp_2.rt,key_resp.keys,key_resp.rt,trials.thisRepN,trials.thisTrialN,trials.thisN,trials.thisIndex,trials.ran,trials.order,Sure,OptionOne,OptionTwo,Risk,Risk2,AmbiguityBarH,Ambiguity,SureXPos,RiskXPos,OptionOneXPos,OptionTwoXPos,RiskX,participant,date,expName,psychopyVersion,OS,frameRate
space,12.73199987,right,14.62100005,1,0,160,1,1,159,5,5,0,25,75,0,0,0.5,-0.5,-0.5,-0.5,-0.5,,2020-07-01_09h37.27.440,Tymula Experiment,3.2.3,MacIntel,60
,,right,6.714999914,1,0,160,116,1,159,-50,-50,0,75,25,0,0,-0.5,0.5,0.5,0.5,0.5,,2020-07-01_09h37.27.440,Tymula Experiment,3.2.3,MacIntel,60
,,right,10.18199992,1,0,160,129,1,159,125,125,0,25,75,0,0,0.5,-0.5,-0.5,-0.5,-0.5,,2020-07-01_09h37.27.440,Tymula Experiment,3.2.3,MacIntel,60
,,left,7.10800004,1,0,160,115,1,159,-50,-50,0,50,50,0,0,0.5,-0.5,-0.5,-0.5,-0.5,,2020-07-01_09h37.27.440,Tymula Experiment,3.2.3,MacIntel,60
,,right,7.012999773,1,0,160,158,1,159,-125,-125,0,25,25,0.325,50,-0.5,0.5,0.5,0.5,0.5,,2020-07-01_09h37.27.440,Tymula Experiment,3.2.3,MacIntel,60
,,left,7.598999739,1,0,160,3,1,159,5,5,0,50,50,0,0,0.5,-0.5,-0.5,-0.5,-0.5,,2020-07-01_09h37.27.440,Tymula Experiment,3.2.3,MacIntel,60
,,right,5.107999802,1,0,160,124,1,159,-50,-50,0,75,25,0,0,-0.5,0.5,0.5,0.5,0.5,,2020-07-01_09h37.27.440,Tymula Experiment,3.2.3,MacIntel,60
,,right,7.053999901,1,0,160,108,1,159,50,50,0,75,25,0,0,-0.5,0.5,0.5,0.5,0.5,,2020-07-01_09h37.27.440,Tymula Experiment,3.2.3,MacIntel,60
,,left,8.463999748,1,0,160,61,1,159,-8,-8,0,38,38,0.156,24,0.5,-0.5,-0.5,-0.5,-0.5,,2020-07-01_09h37.27.440,Tymula Experiment,3.2.3,MacIntel,60
,,left,11.56399989,1,0,160,95,1,159,-20,-20,0,13,13,0.481,74,0.5,-0.5,-0.5,-0.5,-0.5,,2020-07-01_09h37.27.440,Tymula Experiment,3.2.3,MacIntel,60
,,left,6.429000139,1,0,160,37,1,159,8,8,0,38,38,0.156,24,-0.5,0.5,0.5,0.5,0.5,,2020-07-01_09h37.27.440,Tymula Experiment,3.2.3,MacIntel,60
,,right,6.722999811,1,0,160,70,1,159,20,20,0,25,25,0.325,50,0.5,-0.5,-0.5,-0.5,-0.5,,2020-07-01_09h37.27.440,Tymula Experiment,3.2.3,MacIntel,60
,,left,4.799999952,1,0,160,49,1,159,-8,-8,0,25,75,0,0,0.5,-0.5,-0.5,-0.5,-0.5,,2020-07-01_09h37.27.440,Tymula Experiment,3.2.3,MacIntel,60
,,left,6.849999905,1,0,160,19,1,159,-5,-5,0,50,50,0,0,0.5,-0.5,-0.5,-0.5,-0.5,,2020-07-01_09h37.27.440,Tymula Experiment,3.2.3,MacIntel,60
,,left,8.422999859,1,0,160,12,1,159,5,5,0,75,25,0,0,-0.5,0.5,0.5,0.5,0.5,,2020-07-01_09h37.27.440,Tymula Experiment,3.2.3,MacIntel,60
,,right,4.607000113,1,0,160,77,1,159,20,20,0,38,38,0.156,24,0.5,-0.5,-0.5,-0.5,-0.5,,2020-07-01_09h37.27.440,Tymula Experiment,3.2.3,MacIntel,60
,,left,5.343999863,1,0,160,110,1,159,50,50,0,25,25,0.325,50,-0.5,0.5,0.5,0.5,0.5,,2020-07-01_09h37.27.440,Tymula Experiment,3.2.3,MacIntel,60
,,left,11.98099995,1,0,160,60,1,159,-8,-8,0,75,25,0,0,-0.5,0.5,0.5,0.5,0.5,,2020-07-01_09h37.27.440,Tymula Experiment,3.2.3,MacIntel,60
,,left,8.45299983,1,0,160,122,1,159,-50,-50,0,38,62,0,0,0.5,-0.5,-0.5,-0.5,-0.5,,2020-07-01_09h37.27.440,Tymula Experiment,3.2.3,MacIntel,60
,,right,6.125,1,0,160,141,1,159,125,125,0,38,38,0.156,24,0.5,-0.5,-0.5,-0.5,-0.5,,2020-07-01_09h37.27.440,Tymula Experiment,3.2.3,MacIntel,60
,,left,7.997999907,1,0,160,133,1,159,125,125,0,38,38,0.156,24,-0.5,0.5,0.5,0.5,0.5,,2020-07-01_09h37.27.440,Tymula Experiment,3.2.3,MacIntel,60
,,left,6.950999975,1,0,160,130,1,159,125,125,0,38,62,0,0,-0.5,0.5,0.5,0.5,0.5,,2020-07-01_09h37.27.440,Tymula Experiment,3.2.3,MacIntel,60
,,right,7.355999947,1,0,160,30,1,159,-5,-5,0,25,25,0.325,50,-0.5,0.5,0.5,0.5,0.5,,2020-07-01_09h37.27.440,Tymula Experiment,3.2.3,MacIntel,60
,,right,3.449999809,1,0,160,94,1,159,-20,-20,0,25,25,0.325,50,-0.5,0.5,0.5,0.5,0.5,,2020-07-01_09h37.27.440,Tymula Experiment,3.2.3,MacIntel,60
,,left,13.15099978,1,0,160,75,1,159,20,20,0,50,50,0,0,-0.5,0.5,0.5,0.5,0.5,,2020-07-01_09h37.27.440,Tymula Experiment,3.2.3,MacIntel,60
,,left,5.954999924,1,0,160,145,1,159,-125,-125,0,25,75,0,0,0.5,-0.5,-0.5,-0.5,-0.5,,2020-07-01_09h37.27.440,Tymula Experiment,3.2.3,MacIntel,60
,,left,4.654999971,1,0,160,17,1,159,-5,-5,0,25,75,0,0,0.5,-0.5,-0.5,-0.5,-0.5,,2020-07-01_09h37.27.440,Tymula Experiment,3.2.3,MacIntel,60
,,left,6.186999798,1,0,160,34,1,159,8,8,0,38,62,0,0,-0.5,0.5,0.5,0.5,0.5,,2020-07-01_09h37.27.440,Tymula Experiment,3.2.3,MacIntel,60
,,left,4.868000031,1,0,160,113,1,159,-50,-50,0,25,75,0,0,0.5,-0.5,-0.5,-0.5,-0.5,,2020-07-01_09h37.27.440,Tymula Experiment,3.2.3,MacIntel,60
,,left,8.251999855,1,0,160,41,1,159,8,8,0,25,75,0,0,-0.5,0.5,0.5,0.5,0.5,,2020-07-01_09h37.27.440,Tymula Experiment,3.2.3,MacIntel,60
,,right,3.355000019,1,0,160,35,1,159,8,8,0,50,50,0,0,0.5,-0.5,-0.5,-0.5,-0.5,,2020-07-01_09h37.27.440,Tymula Experiment,3.2.3,MacIntel,60
,,right,7.256000042,1,0,160,53,1,159,-8,-8,0,38,38,0.156,24,-0.5,0.5,0.5,0.5,0.5,,2020-07-01_09h37.27.440,Tymula Experiment,3.2.3,MacIntel,60
,,left,3.898000002,1,0,160,90,1,159,-20,-20,0,38,62,0,0,0.5,-0.5,-0.5,-0.5,-0.5,,2020-07-01_09h37.27.440,Tymula Experiment,3.2.3,MacIntel,60
,,left,5.707999945,1,0,160,46,1,159,8,8,0,25,25,0.325,50,-0.5,0.5,0.5,0.5,0.5,,2020-07-01_09h37.27.440,Tymula Experiment,3.2.3,MacIntel,60
,,right,4.174999952,1,0,160,91,1,159,-20,-20,0,50,50,0,0,-0.5,0.5,0.5,0.5,0.5,,2020-07-01_09h37.27.440,Tymula Experiment,3.2.3,MacIntel,60
,,left,2.734999895,1,0,160,43,1,159,8,8,0,50,50,0,0,-0.5,0.5,0.5,0.5,0.5,,2020-07-01_09h37.27.440,Tymula Experiment,3.2.3,MacIntel,60
,,left,2.444000006,1,0,160,101,1,159,50,50,0,38,38,0.156,24,-0.5,0.5,0.5,0.5,0.5,,2020-07-01_09h37.27.440,Tymula Experiment,3.2.3,MacIntel,60
,,right,3.742000103,1,0,160,72,1,159,20,20,0,13,87,0,0,0.5,-0.5,-0.5,-0.5,-0.5,,2020-07-01_09h37.27.440,Tymula Experiment,3.2.3,MacIntel,60
,,left,4.108999968,1,0,160,69,1,159,20,20,0,38,38,0.156,24,-0.5,0.5,0.5,0.5,0.5,,2020-07-01_09h37.27.440,Tymula Experiment,3.2.3,MacIntel,60
,,left,2.955999851,1,0,160,132,1,159,125,125,0,75,25,0,0,-0.5,0.5,0.5,0.5,0.5,,2020-07-01_09h37.27.440,Tymula Experiment,3.2.3,MacIntel,60
,,right,2.892999887,1,0,160,6,1,159,5,5,0,25,25,0.325,50,0.5,-0.5,-0.5,-0.5,-0.5,,2020-07-01_09h37.27.440,Tymula Experiment,3.2.3,MacIntel,60
,,left,6.766000032,1,0,160,39,1,159,8,8,0,13,13,0.481,74,-0.5,0.5,0.5,0.5,0.5,,2020-07-01_09h37.27.440,Tymula Experiment,3.2.3,MacIntel,60
,,left,2.812000036,1,0,160,36,1,159,8,8,0,75,25,0,0,-0.5,0.5,0.5,0.5,0.5,,2020-07-01_09h37.27.440,Tymula Experiment,3.2.3,MacIntel,60
,,left,3.796000004,1,0,160,58,1,159,-8,-8,0,38,62,0,0,0.5,-0.5,-0.5,-0.5,-0.5,,2020-07-01_09h37.27.440,Tymula Experiment,3.2.3,MacIntel,60
,,right,4.117999792,1,0,160,80,1,159,-20,-20,0,13,87,0,0,-0.5,0.5,0.5,0.5,0.5,,2020-07-01_09h37.27.440,Tymula Experiment,3.2.3,MacIntel,60
,,right,4.256000042,1,0,160,59,1,159,-8,-8,0,50,50,0,0,-0.5,0.5,0.5,0.5,0.5,,2020-07-01_09h37.27.440,Tymula Experiment,3.2.3,MacIntel,60
,,right,2.632999897,1,0,160,153,1,159,-125,-125,0,25,75,0,0,-0.5,0.5,0.5,0.5,0.5,,2020-07-01_09h37.27.440,Tymula Experiment,3.2.3,MacIntel,60
,,left,3.600999832,1,0,160,52,1,159,-8,-8,0,75,25,0,0,-0.5,0.5,0.5,0.5,0.5,,2020-07-01_09h37.27.440,Tymula Experiment,3.2.3,MacIntel,60
,,right,2.596999884,1,0,160,144,1,159,-125,-125,0,13,87,0,0,-0.5,0.5,0.5,0.5,0.5,,2020-07-01_09h37.27.440,Tymula Experiment,3.2.3,MacIntel,60
,,right,4.118000031,1,0,160,143,1,159,125,125,0,13,13,0.481,74,0.5,-0.5,-0.5,-0.5,-0.5,,2020-07-01_09h37.27.440,Tymula Experiment,3.2.3,MacIntel,60
,,left,5.36899972,1,0,160,21,1,159,-5,-5,0,38,38,0.156,24,-0.5,0.5,0.5,0.5,0.5,,2020-07-01_09h37.27.440,Tymula Experiment,3.2.3,MacIntel,60
,,left,2.667999744,1,0,160,5,1,159,5,5,0,38,38,0.156,24,-0.5,0.5,0.5,0.5,0.5,,2020-07-01_09h37.27.440,Tymula Experiment,3.2.3,MacIntel,60
,,right,2.464999914,1,0,160,38,1,159,8,8,0,25,25,0.325,50,0.5,-0.5,-0.5,-0.5,-0.5,,2020-07-01_09h37.27.440,Tymula Experiment,3.2.3,MacIntel,60
,,left,2.146999836,1,0,160,154,1,159,-125,-125,0,38,62,0,0,0.5,-0.5,-0.5,-0.5,-0.5,,2020-07-01_09h37.27.440,Tymula Experiment,3.2.3,MacIntel,60
,,right,5.731999874,1,0,160,104,1,159,50,50,0,13,87,0,0,0.5,-0.5,-0.5,-0.5,-0.5,,2020-07-01_09h37.27.440,Tymula Experiment,3.2.3,MacIntel,60
,,right,2.665999889,1,0,160,8,1,159,5,5,0,13,87,0,0,0.5,-0.5,-0.5,-0.5,-0.5,,2020-07-01_09h37.27.440,Tymula Experiment,3.2.3,MacIntel,60
,,right,6.468999863,1,0,160,92,1,159,-20,-20,0,75,25,0,0,-0.5,0.5,0.5,0.5,0.5,,2020-07-01_09h37.27.440,Tymula Experiment,3.2.3,MacIntel,60
,,left,2.503999949,1,0,160,142,1,159,125,125,0,25,25,0.325,50,-0.5,0.5,0.5,0.5,0.5,,2020-07-01_09h37.27.440,Tymula Experiment,3.2.3,MacIntel,60
,,left,4.938999891,1,0,160,24,1,159,-5,-5,0,13,87,0,0,0.5,-0.5,-0.5,-0.5,-0.5,,2020-07-01_09h37.27.440,Tymula Experiment,3.2.3,MacIntel,60
,,right,3.194999933,1,0,160,149,1,159,-125,-125,0,38,38,0.156,24,-0.5,0.5,0.5,0.5,0.5,,2020-07-01_09h37.27.440,Tymula Experiment,3.2.3,MacIntel,60
,,left,2.71600008,1,0,160,137,1,159,125,125,0,25,75,0,0,-0.5,0.5,0.5,0.5,0.5,,2020-07-01_09h37.27.440,Tymula Experiment,3.2.3,MacIntel,60
,,left,3.411999941,1,0,160,150,1,159,-125,-125,0,25,25,0.325,50,0.5,-0.5,-0.5,-0.5,-0.5,,2020-07-01_09h37.27.440,Tymula Experiment,3.2.3,MacIntel,60
,,right,4.996999979,1,0,160,84,1,159,-20,-20,0,75,25,0,0,-0.5,0.5,0.5,0.5,0.5,,2020-07-01_09h37.27.440,Tymula Experiment,3.2.3,MacIntel,60
,,right,2.698999882,1,0,160,126,1,159,-50,-50,0,25,25,0.325,50,-0.5,0.5,0.5,0.5,0.5,,2020-07-01_09h37.27.440,Tymula Experiment,3.2.3,MacIntel,60
,,left,6.55099988,1,0,160,14,1,159,5,5,0,25,25,0.325,50,-0.5,0.5,0.5,0.5,0.5,,2020-07-01_09h37.27.440,Tymula Experiment,3.2.3,MacIntel,60
,,right,2.110999823,1,0,160,136,1,159,125,125,0,13,87,0,0,0.5,-0.5,-0.5,-0.5,-0.5,,2020-07-01_09h37.27.440,Tymula Experiment,3.2.3,MacIntel,60
,,right,3.411999941,1,0,160,78,1,159,20,20,0,25,25,0.325,50,-0.5,0.5,0.5,0.5,0.5,,2020-07-01_09h37.27.440,Tymula Experiment,3.2.3,MacIntel,60
,,left,5.704999924,1,0,160,54,1,159,-8,-8,0,25,25,0.325,50,0.5,-0.5,-0.5,-0.5,-0.5,,2020-07-01_09h37.27.440,Tymula Experiment,3.2.3,MacIntel,60
,,right,4.930000067,1,0,160,23,1,159,-5,-5,0,13,13,0.481,74,-0.5,0.5,0.5,0.5,0.5,,2020-07-01_09h37.27.440,Tymula Experiment,3.2.3,MacIntel,60
,,right,2.210000038,1,0,160,138,1,159,125,125,0,38,62,0,0,0.5,-0.5,-0.5,-0.5,-0.5,,2020-07-01_09h37.27.440,Tymula Experiment,3.2.3,MacIntel,60
,,left,2.790999889,1,0,160,118,1,159,-50,-50,0,25,25,0.325,50,0.5,-0.5,-0.5,-0.5,-0.5,,2020-07-01_09h37.27.440,Tymula Experiment,3.2.3,MacIntel,60
,,right,1.747999907,1,0,160,47,1,159,8,8,0,13,13,0.481,74,0.5,-0.5,-0.5,-0.5,-0.5,,2020-07-01_09h37.27.440,Tymula Experiment,3.2.3,MacIntel,60
,,left,2.460000038,1,0,160,135,1,159,125,125,0,13,13,0.481,74,-0.5,0.5,0.5,0.5,0.5,,2020-07-01_09h37.27.440,Tymula Experiment,3.2.3,MacIntel,60
,,left,2.035000086,1,0,160,139,1,159,125,125,0,50,50,0,0,-0.5,0.5,0.5,0.5,0.5,,2020-07-01_09h37.27.440,Tymula Experiment,3.2.3,MacIntel,60
,,right,1.637000084,1,0,160,131,1,159,125,125,0,50,50,0,0,0.5,-0.5,-0.5,-0.5,-0.5,,2020-07-01_09h37.27.440,Tymula Experiment,3.2.3,MacIntel,60
,,right,1.871999979,1,0,160,73,1,159,20,20,0,25,75,0,0,-0.5,0.5,0.5,0.5,0.5,,2020-07-01_09h37.27.440,Tymula Experiment,3.2.3,MacIntel,60
,,left,2.89199996,1,0,160,88,1,159,-20,-20,0,13,87,0,0,0.5,-0.5,-0.5,-0.5,-0.5,,2020-07-01_09h37.27.440,Tymula Experiment,3.2.3,MacIntel,60
,,right,3.61500001,1,0,160,117,1,159,-50,-50,0,38,38,0.156,24,-0.5,0.5,0.5,0.5,0.5,,2020-07-01_09h37.27.440,Tymula Experiment,3.2.3,MacIntel,60
,,left,3.246999979,1,0,160,120,1,159,-50,-50,0,13,87,0,0,0.5,-0.5,-0.5,-0.5,-0.5,,2020-07-01_09h37.27.440,Tymula Experiment,3.2.3,MacIntel,60
,,left,2.250999928,1,0,160,152,1,159,-125,-125,0,13,87,0,0,0.5,-0.5,-0.5,-0.5,-0.5,,2020-07-01_09h37.27.440,Tymula Experiment,3.2.3,MacIntel,60
,,left,2.937000036,1,0,160,128,1,159,125,125,0,13,87,0,0,-0.5,0.5,0.5,0.5,0.5,,2020-07-01_09h37.27.440,Tymula Experiment,3.2.3,MacIntel,60
,,right,2.254999876,1,0,160,48,1,159,-8,-8,0,13,87,0,0,-0.5,0.5,0.5,0.5,0.5,,2020-07-01_09h37.27.440,Tymula Experiment,3.2.3,MacIntel,60
,,left,2.962999821,1,0,160,159,1,159,-125,-125,0,13,13,0.481,74,0.5,-0.5,-0.5,-0.5,-0.5,,2020-07-01_09h37.27.440,Tymula Experiment,3.2.3,MacIntel,60
,,left,2.399999857,1,0,160,64,1,159,20,20,0,13,87,0,0,-0.5,0.5,0.5,0.5,0.5,,2020-07-01_09h37.27.440,Tymula Experiment,3.2.3,MacIntel,60
,,left,2.349999905,1,0,160,100,1,159,50,50,0,75,25,0,0,-0.5,0.5,0.5,0.5,0.5,,2020-07-01_09h37.27.440,Tymula Experiment,3.2.3,MacIntel,60
,,right,1.698999882,1,0,160,16,1,159,-5,-5,0,13,87,0,0,-0.5,0.5,0.5,0.5,0.5,,2020-07-01_09h37.27.440,Tymula Experiment,3.2.3,MacIntel,60
,,right,3.660000086,1,0,160,99,1,159,50,50,0,50,50,0,0,0.5,-0.5,-0.5,-0.5,-0.5,,2020-07-01_09h37.27.440,Tymula Experiment,3.2.3,MacIntel,60
,,left,2.438999891,1,0,160,7,1,159,5,5,0,13,13,0.481,74,-0.5,0.5,0.5,0.5,0.5,,2020-07-01_09h37.27.440,Tymula Experiment,3.2.3,MacIntel,60
,,right,1.66899991,1,0,160,89,1,159,-20,-20,0,25,75,0,0,-0.5,0.5,0.5,0.5,0.5,,2020-07-01_09h37.27.440,Tymula Experiment,3.2.3,MacIntel,60
,,left,4.383999825,1,0,160,26,1,159,-5,-5,0,38,62,0,0,0.5,-0.5,-0.5,-0.5,-0.5,,2020-07-01_09h37.27.440,Tymula Experiment,3.2.3,MacIntel,60
,,right,2.852999926,1,0,160,28,1,159,-5,-5,0,75,25,0,0,-0.5,0.5,0.5,0.5,0.5,,2020-07-01_09h37.27.440,Tymula Experiment,3.2.3,MacIntel,60
,,right,2.75,1,0,160,57,1,159,-8,-8,0,25,75,0,0,-0.5,0.5,0.5,0.5,0.5,,2020-07-01_09h37.27.440,Tymula Experiment,3.2.3,MacIntel,60
,,right,4.281999826,1,0,160,97,1,159,50,50,0,25,75,0,0,0.5,-0.5,-0.5,-0.5,-0.5,,2020-07-01_09h37.27.440,Tymula Experiment,3.2.3,MacIntel,60
,,right,2.782999992,1,0,160,25,1,159,-5,-5,0,25,75,0,0,-0.5,0.5,0.5,0.5,0.5,,2020-07-01_09h37.27.440,Tymula Experiment,3.2.3,MacIntel,60
,,left,3.378999949,1,0,160,9,1,159,5,5,0,25,75,0,0,-0.5,0.5,0.5,0.5,0.5,,2020-07-01_09h37.27.440,Tymula Experiment,3.2.3,MacIntel,60
,,right,6.040999889,1,0,160,20,1,159,-5,-5,0,75,25,0,0,-0.5,0.5,0.5,0.5,0.5,,2020-07-01_09h37.27.440,Tymula Experiment,3.2.3,MacIntel,60
,,left,2.023999929,1,0,160,98,1,159,50,50,0,38,62,0,0,-0.5,0.5,0.5,0.5,0.5,,2020-07-01_09h37.27.440,Tymula Experiment,3.2.3,MacIntel,60
,,left,2.006999969,1,0,160,66,1,159,20,20,0,38,62,0,0,-0.5,0.5,0.5,0.5,0.5,,2020-07-01_09h37.27.440,Tymula Experiment,3.2.3,MacIntel,60
,,right,2.036999941,1,0,160,102,1,159,50,50,0,25,25,0.325,50,0.5,-0.5,-0.5,-0.5,-0.5,,2020-07-01_09h37.27.440,Tymula Experiment,3.2.3,MacIntel,60
,,right,3.617999792,1,0,160,119,1,159,-50,-50,0,13,13,0.481,74,-0.5,0.5,0.5,0.5,0.5,,2020-07-01_09h37.27.440,Tymula Experiment,3.2.3,MacIntel,60
,,right,2.288999796,1,0,160,13,1,159,5,5,0,38,38,0.156,24,0.5,-0.5,-0.5,-0.5,-0.5,,2020-07-01_09h37.27.440,Tymula Experiment,3.2.3,MacIntel,60
,,right,2.864999771,1,0,160,151,1,159,-125,-125,0,13,13,0.481,74,-0.5,0.5,0.5,0.5,0.5,,2020-07-01_09h37.27.440,Tymula Experiment,3.2.3,MacIntel,60
,,right,2.051000118,1,0,160,112,1,159,-50,-50,0,13,87,0,0,-0.5,0.5,0.5,0.5,0.5,,2020-07-01_09h37.27.440,Tymula Experiment,3.2.3,MacIntel,60
,,right,5.914999962,1,0,160,67,1,159,20,20,0,50,50,0,0,0.5,-0.5,-0.5,-0.5,-0.5,,2020-07-01_09h37.27.440,Tymula Experiment,3.2.3,MacIntel,60
,,left,2.115999937,1,0,160,2,1,159,5,5,0,38,62,0,0,-0.5,0.5,0.5,0.5,0.5,,2020-07-01_09h37.27.440,Tymula Experiment,3.2.3,MacIntel,60
,,right,2.609999895,1,0,160,85,1,159,-20,-20,0,38,38,0.156,24,-0.5,0.5,0.5,0.5,0.5,,2020-07-01_09h37.27.440,Tymula Experiment,3.2.3,MacIntel,60
,,right,2.447000027,1,0,160,27,1,159,-5,-5,0,50,50,0,0,-0.5,0.5,0.5,0.5,0.5,,2020-07-01_09h37.27.440,Tymula Experiment,3.2.3,MacIntel,60
,,left,2.970999956,1,0,160,22,1,159,-5,-5,0,25,25,0.325,50,0.5,-0.5,-0.5,-0.5,-0.5,,2020-07-01_09h37.27.440,Tymula Experiment,3.2.3,MacIntel,60
,,right,2.781999826,1,0,160,155,1,159,-125,-125,0,50,50,0,0,-0.5,0.5,0.5,0.5,0.5,,2020-07-01_09h37.27.440,Tymula Experiment,3.2.3,MacIntel,60
,,left,2.268999815,1,0,160,29,1,159,-5,-5,0,38,38,0.156,24,0.5,-0.5,-0.5,-0.5,-0.5,,2020-07-01_09h37.27.440,Tymula Experiment,3.2.3,MacIntel,60
,,left,3.700000048,1,0,160,71,1,159,20,20,0,13,13,0.481,74,-0.5,0.5,0.5,0.5,0.5,,2020-07-01_09h37.27.440,Tymula Experiment,3.2.3,MacIntel,60
,,right,4.062999964,1,0,160,40,1,159,8,8,0,13,87,0,0,0.5,-0.5,-0.5,-0.5,-0.5,,2020-07-01_09h37.27.440,Tymula Experiment,3.2.3,MacIntel,60
,,left,2.235999823,1,0,160,4,1,159,5,5,0,75,25,0,0,-0.5,0.5,0.5,0.5,0.5,,2020-07-01_09h37.27.440,Tymula Experiment,3.2.3,MacIntel,60
,,left,7.290999889,1,0,160,96,1,159,50,50,0,13,87,0,0,-0.5,0.5,0.5,0.5,0.5,,2020-07-01_09h37.27.440,Tymula Experiment,3.2.3,MacIntel,60
,,right,1.21999979,1,0,160,74,1,159,20,20,0,38,62,0,0,0.5,-0.5,-0.5,-0.5,-0.5,,2020-07-01_09h37.27.440,Tymula Experiment,3.2.3,MacIntel,60
,,left,1.105000019,1,0,160,140,1,159,125,125,0,75,25,0,0,-0.5,0.5,0.5,0.5,0.5,,2020-07-01_09h37.27.440,Tymula Experiment,3.2.3,MacIntel,60
,,right,0.986999989,1,0,160,45,1,159,8,8,0,38,38,0.156,24,0.5,-0.5,-0.5,-0.5,-0.5,,2020-07-01_09h37.27.440,Tymula Experiment,3.2.3,MacIntel,60
,,left,1.849999905,1,0,160,56,1,159,-8,-8,0,13,87,0,0,0.5,-0.5,-0.5,-0.5,-0.5,,2020-07-01_09h37.27.440,Tymula Experiment,3.2.3,MacIntel,60
,,right,2.065000057,1,0,160,62,1,159,-8,-8,0,25,25,0.325,50,-0.5,0.5,0.5,0.5,0.5,,2020-07-01_09h37.27.440,Tymula Experiment,3.2.3,MacIntel,60
,,left,1.315000057,1,0,160,103,1,159,50,50,0,13,13,0.481,74,-0.5,0.5,0.5,0.5,0.5,,2020-07-01_09h37.27.440,Tymula Experiment,3.2.3,MacIntel,60
,,right,3.378000021,1,0,160,55,1,159,-8,-8,0,13,13,0.481,74,-0.5,0.5,0.5,0.5,0.5,,2020-07-01_09h37.27.440,Tymula Experiment,3.2.3,MacIntel,60
,,right,1.294999838,1,0,160,87,1,159,-20,-20,0,13,13,0.481,74,-0.5,0.5,0.5,0.5,0.5,,2020-07-01_09h37.27.440,Tymula Experiment,3.2.3,MacIntel,60
,,left,1.092999935,1,0,160,81,1,159,-20,-20,0,25,75,0,0,0.5,-0.5,-0.5,-0.5,-0.5,,2020-07-01_09h37.27.440,Tymula Experiment,3.2.3,MacIntel,60
,,right,1.348999977,1,0,160,65,1,159,20,20,0,25,75,0,0,0.5,-0.5,-0.5,-0.5,-0.5,,2020-07-01_09h37.27.440,Tymula Experiment,3.2.3,MacIntel,60
,,left,1.036999941,1,0,160,93,1,159,-20,-20,0,38,38,0.156,24,0.5,-0.5,-0.5,-0.5,-0.5,,2020-07-01_09h37.27.440,Tymula Experiment,3.2.3,MacIntel,60
,,left,1.984999895,1,0,160,0,1,159,5,5,0,13,87,0,0,-0.5,0.5,0.5,0.5,0.5,,2020-07-01_09h37.27.440,Tymula Experiment,3.2.3,MacIntel,60
,,left,2.170000076,1,0,160,86,1,159,-20,-20,0,25,25,0.325,50,0.5,-0.5,-0.5,-0.5,-0.5,,2020-07-01_09h37.27.440,Tymula Experiment,3.2.3,MacIntel,60
,,left,1.899999857,1,0,160,83,1,159,-20,-20,0,50,50,0,0,0.5,-0.5,-0.5,-0.5,-0.5,,2020-07-01_09h37.27.440,Tymula Experiment,3.2.3,MacIntel,60
,,left,1.523000002,1,0,160,44,1,159,8,8,0,75,25,0,0,-0.5,0.5,0.5,0.5,0.5,,2020-07-01_09h37.27.440,Tymula Experiment,3.2.3,MacIntel,60
,,right,1.384000063,1,0,160,42,1,159,8,8,0,38,62,0,0,0.5,-0.5,-0.5,-0.5,-0.5,,2020-07-01_09h37.27.440,Tymula Experiment,3.2.3,MacIntel,60
,,left,3.75999999,1,0,160,63,1,159,-8,-8,0,13,13,0.481,74,0.5,-0.5,-0.5,-0.5,-0.5,,2020-07-01_09h37.27.440,Tymula Experiment,3.2.3,MacIntel,60
,,right,2.079999924,1,0,160,106,1,159,50,50,0,38,62,0,0,0.5,-0.5,-0.5,-0.5,-0.5,,2020-07-01_09h37.27.440,Tymula Experiment,3.2.3,MacIntel,60
,,right,1.122999907,1,0,160,15,1,159,5,5,0,13,13,0.481,74,0.5,-0.5,-0.5,-0.5,-0.5,,2020-07-01_09h37.27.440,Tymula Experiment,3.2.3,MacIntel,60
,,right,2.167000055,1,0,160,148,1,159,-125,-125,0,75,25,0,0,-0.5,0.5,0.5,0.5,0.5,,2020-07-01_09h37.27.440,Tymula Experiment,3.2.3,MacIntel,60
,,right,3.501999855,1,0,160,156,1,159,-125,-125,0,75,25,0,0,-0.5,0.5,0.5,0.5,0.5,,2020-07-01_09h37.27.440,Tymula Experiment,3.2.3,MacIntel,60
,,left,2.984999895,1,0,160,157,1,159,-125,-125,0,38,38,0.156,24,0.5,-0.5,-0.5,-0.5,-0.5,,2020-07-01_09h37.27.440,Tymula Experiment,3.2.3,MacIntel,60
,,left,1.171999931,1,0,160,125,1,159,-50,-50,0,38,38,0.156,24,0.5,-0.5,-0.5,-0.5,-0.5,,2020-07-01_09h37.27.440,Tymula Experiment,3.2.3,MacIntel,60
,,left,1.032999992,1,0,160,51,1,159,-8,-8,0,50,50,0,0,0.5,-0.5,-0.5,-0.5,-0.5,,2020-07-01_09h37.27.440,Tymula Experiment,3.2.3,MacIntel,60
,,right,1.230999947,1,0,160,146,1,159,-125,-125,0,38,62,0,0,-0.5,0.5,0.5,0.5,0.5,,2020-07-01_09h37.27.440,Tymula Experiment,3.2.3,MacIntel,60
,,right,1.046000004,1,0,160,114,1,159,-50,-50,0,38,62,0,0,-0.5,0.5,0.5,0.5,0.5,,2020-07-01_09h37.27.440,Tymula Experiment,3.2.3,MacIntel,60
,,right,0.68599987,1,0,160,82,1,159,-20,-20,0,38,62,0,0,-0.5,0.5,0.5,0.5,0.5,,2020-07-01_09h37.27.440,Tymula Experiment,3.2.3,MacIntel,60
,,left,1.765999794,1,0,160,107,1,159,50,50,0,50,50,0,0,-0.5,0.5,0.5,0.5,0.5,,2020-07-01_09h37.27.440,Tymula Experiment,3.2.3,MacIntel,60
,,right,0.971999884,1,0,160,33,1,159,8,8,0,25,75,0,0,0.5,-0.5,-0.5,-0.5,-0.5,,2020-07-01_09h37.27.440,Tymula Experiment,3.2.3,MacIntel,60
,,left,1.062999725,1,0,160,76,1,159,20,20,0,75,25,0,0,-0.5,0.5,0.5,0.5,0.5,,2020-07-01_09h37.27.440,Tymula Experiment,3.2.3,MacIntel,60
,,right,1.148999929,1,0,160,79,1,159,20,20,0,13,13,0.481,74,0.5,-0.5,-0.5,-0.5,-0.5,,2020-07-01_09h37.27.440,Tymula Experiment,3.2.3,MacIntel,60
,,right,0.803999901,1,0,160,134,1,159,125,125,0,25,25,0.325,50,0.5,-0.5,-0.5,-0.5,-0.5,,2020-07-01_09h37.27.440,Tymula Experiment,3.2.3,MacIntel,60
,,right,4.223999739,1,0,160,18,1,159,-5,-5,0,38,62,0,0,-0.5,0.5,0.5,0.5,0.5,,2020-07-01_09h37.27.440,Tymula Experiment,3.2.3,MacIntel,60
,,right,0.819999933,1,0,160,123,1,159,-50,-50,0,50,50,0,0,-0.5,0.5,0.5,0.5,0.5,,2020-07-01_09h37.27.440,Tymula Experiment,3.2.3,MacIntel,60
,,left,0.998000145,1,0,160,147,1,159,-125,-125,0,50,50,0,0,0.5,-0.5,-0.5,-0.5,-0.5,,2020-07-01_09h37.27.440,Tymula Experiment,3.2.3,MacIntel,60
,,right,2.117999792,1,0,160,109,1,159,50,50,0,38,38,0.156,24,0.5,-0.5,-0.5,-0.5,-0.5,,2020-07-01_09h37.27.440,Tymula Experiment,3.2.3,MacIntel,60
,,right,1.612999916,1,0,160,121,1,159,-50,-50,0,25,75,0,0,-0.5,0.5,0.5,0.5,0.5,,2020-07-01_09h37.27.440,Tymula Experiment,3.2.3,MacIntel,60
,,right,1.379999876,1,0,160,111,1,159,50,50,0,13,13,0.481,74,0.5,-0.5,-0.5,-0.5,-0.5,,2020-07-01_09h37.27.440,Tymula Experiment,3.2.3,MacIntel,60
,,right,1.518999815,1,0,160,105,1,159,50,50,0,25,75,0,0,-0.5,0.5,0.5,0.5,0.5,,2020-07-01_09h37.27.440,Tymula Experiment,3.2.3,MacIntel,60
,,right,3.976999998,1,0,160,50,1,159,-8,-8,0,38,62,0,0,-0.5,0.5,0.5,0.5,0.5,,2020-07-01_09h37.27.440,Tymula Experiment,3.2.3,MacIntel,60
,,left,1.285000086,1,0,160,127,1,159,-50,-50,0,13,13,0.481,74,0.5,-0.5,-0.5,-0.5,-0.5,,2020-07-01_09h37.27.440,Tymula Experiment,3.2.3,MacIntel,60
,,left,1.253000021,1,0,160,32,1,159,8,8,0,13,87,0,0,-0.5,0.5,0.5,0.5,0.5,,2020-07-01_09h37.27.440,Tymula Experiment,3.2.3,MacIntel,60
,,left,1.639999866,1,0,160,31,1,159,-5,-5,0,13,13,0.481,74,0.5,-0.5,-0.5,-0.5,-0.5,,2020-07-01_09h37.27.440,Tymula Experiment,3.2.3,MacIntel,60
,,right,1.381999969,1,0,160,10,1,159,5,5,0,38,62,0,0,0.5,-0.5,-0.5,-0.5,-0.5,,2020-07-01_09h37.27.440,Tymula Experiment,3.2.3,MacIntel,60
,,left,1.140000105,1,0,160,11,1,159,5,5,0,50,50,0,0,-0.5,0.5,0.5,0.5,0.5,,2020-07-01_09h37.27.440,Tymula Experiment,3.2.3,MacIntel,60
,,left,1.17599988,1,0,160,68,1,159,20,20,0,75,25,0,0,-0.5,0.5,0.5,0.5,0.5,,2020-07-01_09h37.27.440,Tymula Experiment,3.2.3,MacIntel,60
