key_resp_2.keys,key_resp_2.rt,key_resp.keys,key_resp.rt,trials.thisRepN,trials.thisTrialN,trials.thisN,trials.thisIndex,trials.ran,trials.order,Sure,OptionOne,OptionTwo,Risk,Risk2,AmbiguityBarH,Ambiguity,SureXPos,RiskXPos,OptionOneXPos,OptionTwoXPos,RiskX,participant,date,expName,psychopyVersion,OS,frameRate
space,10.46200013,left,24.86300015,1,0,160,89,1,159,-20,-20,0,25,75,0,0,-0.5,0.5,0.5,0.5,0.5,place,2020-06-29_14h12.51.844,Tymula Experiment,3.2.3,Linux x86_64,60
,,right,9.003999949,1,0,160,26,1,159,-5,-5,0,38,62,0,0,0.5,-0.5,-0.5,-0.5,-0.5,place,2020-06-29_14h12.51.844,Tymula Experiment,3.2.3,Linux x86_64,60
,,left,17.06200004,1,0,160,5,1,159,5,5,0,38,38,0.156,24,-0.5,0.5,0.5,0.5,0.5,place,2020-06-29_14h12.51.844,Tymula Experiment,3.2.3,Linux x86_64,60
,,left,5.006000042,1,0,160,105,1,159,50,50,0,25,75,0,0,-0.5,0.5,0.5,0.5,0.5,place,2020-06-29_14h12.51.844,Tymula Experiment,3.2.3,Linux x86_64,60
,,left,3.536000252,1,0,160,137,1,159,125,125,0,25,75,0,0,-0.5,0.5,0.5,0.5,0.5,place,2020-06-29_14h12.51.844,Tymula Experiment,3.2.3,Linux x86_64,60
,,right,5.907999992,1,0,160,54,1,159,-8,-8,0,25,25,0.325,50,0.5,-0.5,-0.5,-0.5,-0.5,place,2020-06-29_14h12.51.844,Tymula Experiment,3.2.3,Linux x86_64,60
,,right,4.154999971,1,0,160,133,1,159,125,125,0,38,38,0.156,24,-0.5,0.5,0.5,0.5,0.5,place,2020-06-29_14h12.51.844,Tymula Experiment,3.2.3,Linux x86_64,60
,,left,4.211000204,1,0,160,36,1,159,8,8,0,75,25,0,0,-0.5,0.5,0.5,0.5,0.5,place,2020-06-29_14h12.51.844,Tymula Experiment,3.2.3,Linux x86_64,60
,,right,2.943000078,1,0,160,60,1,159,-8,-8,0,75,25,0,0,-0.5,0.5,0.5,0.5,0.5,place,2020-06-29_14h12.51.844,Tymula Experiment,3.2.3,Linux x86_64,60
,,right,4.239000082,1,0,160,69,1,159,20,20,0,38,38,0.156,24,-0.5,0.5,0.5,0.5,0.5,place,2020-06-29_14h12.51.844,Tymula Experiment,3.2.3,Linux x86_64,60
,,left,3.791000128,1,0,160,92,1,159,-20,-20,0,75,25,0,0,-0.5,0.5,0.5,0.5,0.5,place,2020-06-29_14h12.51.844,Tymula Experiment,3.2.3,Linux x86_64,60
,,right,4.32400012,1,0,160,152,1,159,-125,-125,0,13,87,0,0,0.5,-0.5,-0.5,-0.5,-0.5,place,2020-06-29_14h12.51.844,Tymula Experiment,3.2.3,Linux x86_64,60
,,right,7.962000132,1,0,160,1,1,159,5,5,0,25,75,0,0,0.5,-0.5,-0.5,-0.5,-0.5,place,2020-06-29_14h12.51.844,Tymula Experiment,3.2.3,Linux x86_64,60
,,left,5.950000048,1,0,160,143,1,159,125,125,0,13,13,0.481,74,0.5,-0.5,-0.5,-0.5,-0.5,place,2020-06-29_14h12.51.844,Tymula Experiment,3.2.3,Linux x86_64,60
,,right,7.690999985,1,0,160,123,1,159,-50,-50,0,50,50,0,0,-0.5,0.5,0.5,0.5,0.5,place,2020-06-29_14h12.51.844,Tymula Experiment,3.2.3,Linux x86_64,60
,,right,6.870000124,1,0,160,62,1,159,-8,-8,0,25,25,0.325,50,-0.5,0.5,0.5,0.5,0.5,place,2020-06-29_14h12.51.844,Tymula Experiment,3.2.3,Linux x86_64,60
,,left,4.599000216,1,0,160,93,1,159,-20,-20,0,38,38,0.156,24,0.5,-0.5,-0.5,-0.5,-0.5,place,2020-06-29_14h12.51.844,Tymula Experiment,3.2.3,Linux x86_64,60
,,right,3.637000084,1,0,160,11,1,159,5,5,0,50,50,0,0,-0.5,0.5,0.5,0.5,0.5,place,2020-06-29_14h12.51.844,Tymula Experiment,3.2.3,Linux x86_64,60
,,left,2.976999998,1,0,160,113,1,159,-50,-50,0,25,75,0,0,0.5,-0.5,-0.5,-0.5,-0.5,place,2020-06-29_14h12.51.844,Tymula Experiment,3.2.3,Linux x86_64,60
,,left,2.730000019,1,0,160,35,1,159,8,8,0,50,50,0,0,0.5,-0.5,-0.5,-0.5,-0.5,place,2020-06-29_14h12.51.844,Tymula Experiment,3.2.3,Linux x86_64,60
,,right,4.746000051,1,0,160,149,1,159,-125,-125,0,38,38,0.156,24,-0.5,0.5,0.5,0.5,0.5,place,2020-06-29_14h12.51.844,Tymula Experiment,3.2.3,Linux x86_64,60
,,right,2.742000103,1,0,160,44,1,159,8,8,0,75,25,0,0,-0.5,0.5,0.5,0.5,0.5,place,2020-06-29_14h12.51.844,Tymula Experiment,3.2.3,Linux x86_64,60
,,left,5.016000032,1,0,160,97,1,159,50,50,0,25,75,0,0,0.5,-0.5,-0.5,-0.5,-0.5,place,2020-06-29_14h12.51.844,Tymula Experiment,3.2.3,Linux x86_64,60
,,right,9.808000088,1,0,160,85,1,159,-20,-20,0,38,38,0.156,24,-0.5,0.5,0.5,0.5,0.5,place,2020-06-29_14h12.51.844,Tymula Experiment,3.2.3,Linux x86_64,60
,,right,1.453000069,1,0,160,116,1,159,-50,-50,0,75,25,0,0,-0.5,0.5,0.5,0.5,0.5,place,2020-06-29_14h12.51.844,Tymula Experiment,3.2.3,Linux x86_64,60
,,right,4.879000187,1,0,160,25,1,159,-5,-5,0,25,75,0,0,-0.5,0.5,0.5,0.5,0.5,place,2020-06-29_14h12.51.844,Tymula Experiment,3.2.3,Linux x86_64,60
,,left,2.674000263,1,0,160,107,1,159,50,50,0,50,50,0,0,-0.5,0.5,0.5,0.5,0.5,place,2020-06-29_14h12.51.844,Tymula Experiment,3.2.3,Linux x86_64,60
,,left,6.946000099,1,0,160,29,1,159,-5,-5,0,38,38,0.156,24,0.5,-0.5,-0.5,-0.5,-0.5,place,2020-06-29_14h12.51.844,Tymula Experiment,3.2.3,Linux x86_64,60
,,right,4.606000185,1,0,160,4,1,159,5,5,0,75,25,0,0,-0.5,0.5,0.5,0.5,0.5,place,2020-06-29_14h12.51.844,Tymula Experiment,3.2.3,Linux x86_64,60
,,right,7.073999882,1,0,160,37,1,159,8,8,0,38,38,0.156,24,-0.5,0.5,0.5,0.5,0.5,place,2020-06-29_14h12.51.844,Tymula Experiment,3.2.3,Linux x86_64,60
,,right,3.318000078,1,0,160,129,1,159,125,125,0,25,75,0,0,0.5,-0.5,-0.5,-0.5,-0.5,place,2020-06-29_14h12.51.844,Tymula Experiment,3.2.3,Linux x86_64,60
,,left,4.579999924,1,0,160,125,1,159,-50,-50,0,38,38,0.156,24,0.5,-0.5,-0.5,-0.5,-0.5,place,2020-06-29_14h12.51.844,Tymula Experiment,3.2.3,Linux x86_64,60
,,left,4.726000071,1,0,160,147,1,159,-125,-125,0,50,50,0,0,0.5,-0.5,-0.5,-0.5,-0.5,place,2020-06-29_14h12.51.844,Tymula Experiment,3.2.3,Linux x86_64,60
,,left,6.524000168,1,0,160,104,1,159,50,50,0,13,87,0,0,0.5,-0.5,-0.5,-0.5,-0.5,place,2020-06-29_14h12.51.844,Tymula Experiment,3.2.3,Linux x86_64,60
,,left,2.710000038,1,0,160,157,1,159,-125,-125,0,38,38,0.156,24,0.5,-0.5,-0.5,-0.5,-0.5,place,2020-06-29_14h12.51.844,Tymula Experiment,3.2.3,Linux x86_64,60
,,right,4.162000179,1,0,160,31,1,159,-5,-5,0,13,13,0.481,74,0.5,-0.5,-0.5,-0.5,-0.5,place,2020-06-29_14h12.51.844,Tymula Experiment,3.2.3,Linux x86_64,60
,,left,2.738000154,1,0,160,40,1,159,8,8,0,13,87,0,0,0.5,-0.5,-0.5,-0.5,-0.5,place,2020-06-29_14h12.51.844,Tymula Experiment,3.2.3,Linux x86_64,60
,,right,3.779000044,1,0,160,79,1,159,20,20,0,13,13,0.481,74,0.5,-0.5,-0.5,-0.5,-0.5,place,2020-06-29_14h12.51.844,Tymula Experiment,3.2.3,Linux x86_64,60
,,left,2.278000116,1,0,160,61,1,159,-8,-8,0,38,38,0.156,24,0.5,-0.5,-0.5,-0.5,-0.5,place,2020-06-29_14h12.51.844,Tymula Experiment,3.2.3,Linux x86_64,60
,,right,5.856000185,1,0,160,68,1,159,20,20,0,75,25,0,0,-0.5,0.5,0.5,0.5,0.5,place,2020-06-29_14h12.51.844,Tymula Experiment,3.2.3,Linux x86_64,60
,,right,3.539999962,1,0,160,84,1,159,-20,-20,0,75,25,0,0,-0.5,0.5,0.5,0.5,0.5,place,2020-06-29_14h12.51.844,Tymula Experiment,3.2.3,Linux x86_64,60
,,right,3.012000084,1,0,160,155,1,159,-125,-125,0,50,50,0,0,-0.5,0.5,0.5,0.5,0.5,place,2020-06-29_14h12.51.844,Tymula Experiment,3.2.3,Linux x86_64,60
,,left,2.444000244,1,0,160,135,1,159,125,125,0,13,13,0.481,74,-0.5,0.5,0.5,0.5,0.5,place,2020-06-29_14h12.51.844,Tymula Experiment,3.2.3,Linux x86_64,60
,,right,3.941000223,1,0,160,117,1,159,-50,-50,0,38,38,0.156,24,-0.5,0.5,0.5,0.5,0.5,place,2020-06-29_14h12.51.844,Tymula Experiment,3.2.3,Linux x86_64,60
,,right,1.575000286,1,0,160,27,1,159,-5,-5,0,50,50,0,0,-0.5,0.5,0.5,0.5,0.5,place,2020-06-29_14h12.51.844,Tymula Experiment,3.2.3,Linux x86_64,60
,,left,2.4150002,1,0,160,110,1,159,50,50,0,25,25,0.325,50,-0.5,0.5,0.5,0.5,0.5,place,2020-06-29_14h12.51.844,Tymula Experiment,3.2.3,Linux x86_64,60
,,left,6.276000261,1,0,160,127,1,159,-50,-50,0,13,13,0.481,74,0.5,-0.5,-0.5,-0.5,-0.5,place,2020-06-29_14h12.51.844,Tymula Experiment,3.2.3,Linux x86_64,60
,,right,2.012000084,1,0,160,48,1,159,-8,-8,0,13,87,0,0,-0.5,0.5,0.5,0.5,0.5,place,2020-06-29_14h12.51.844,Tymula Experiment,3.2.3,Linux x86_64,60
,,right,4.889000177,1,0,160,14,1,159,5,5,0,25,25,0.325,50,-0.5,0.5,0.5,0.5,0.5,place,2020-06-29_14h12.51.844,Tymula Experiment,3.2.3,Linux x86_64,60
,,right,2.275000095,1,0,160,75,1,159,20,20,0,50,50,0,0,-0.5,0.5,0.5,0.5,0.5,place,2020-06-29_14h12.51.844,Tymula Experiment,3.2.3,Linux x86_64,60
,,right,3.041000128,1,0,160,15,1,159,5,5,0,13,13,0.481,74,0.5,-0.5,-0.5,-0.5,-0.5,place,2020-06-29_14h12.51.844,Tymula Experiment,3.2.3,Linux x86_64,60
,,left,2.030999899,1,0,160,10,1,159,5,5,0,38,62,0,0,0.5,-0.5,-0.5,-0.5,-0.5,place,2020-06-29_14h12.51.844,Tymula Experiment,3.2.3,Linux x86_64,60
,,left,0.088000059,1,0,160,83,1,159,-20,-20,0,50,50,0,0,0.5,-0.5,-0.5,-0.5,-0.5,place,2020-06-29_14h12.51.844,Tymula Experiment,3.2.3,Linux x86_64,60
,,left,2.186000109,1,0,160,39,1,159,8,8,0,13,13,0.481,74,-0.5,0.5,0.5,0.5,0.5,place,2020-06-29_14h12.51.844,Tymula Experiment,3.2.3,Linux x86_64,60
,,right,2.461000204,1,0,160,45,1,159,8,8,0,38,38,0.156,24,0.5,-0.5,-0.5,-0.5,-0.5,place,2020-06-29_14h12.51.844,Tymula Experiment,3.2.3,Linux x86_64,60
,,right,2.055000067,1,0,160,20,1,159,-5,-5,0,75,25,0,0,-0.5,0.5,0.5,0.5,0.5,place,2020-06-29_14h12.51.844,Tymula Experiment,3.2.3,Linux x86_64,60
,,left,2.006000042,1,0,160,71,1,159,20,20,0,13,13,0.481,74,-0.5,0.5,0.5,0.5,0.5,place,2020-06-29_14h12.51.844,Tymula Experiment,3.2.3,Linux x86_64,60
,,right,2.143000126,1,0,160,43,1,159,8,8,0,50,50,0,0,-0.5,0.5,0.5,0.5,0.5,place,2020-06-29_14h12.51.844,Tymula Experiment,3.2.3,Linux x86_64,60
,,left,1.879000187,1,0,160,103,1,159,50,50,0,13,13,0.481,74,-0.5,0.5,0.5,0.5,0.5,place,2020-06-29_14h12.51.844,Tymula Experiment,3.2.3,Linux x86_64,60
,,right,2.259000063,1,0,160,82,1,159,-20,-20,0,38,62,0,0,-0.5,0.5,0.5,0.5,0.5,place,2020-06-29_14h12.51.844,Tymula Experiment,3.2.3,Linux x86_64,60
,,right,1.944000244,1,0,160,80,1,159,-20,-20,0,13,87,0,0,-0.5,0.5,0.5,0.5,0.5,place,2020-06-29_14h12.51.844,Tymula Experiment,3.2.3,Linux x86_64,60
,,left,2.916000128,1,0,160,90,1,159,-20,-20,0,38,62,0,0,0.5,-0.5,-0.5,-0.5,-0.5,place,2020-06-29_14h12.51.844,Tymula Experiment,3.2.3,Linux x86_64,60
,,left,2.594000101,1,0,160,56,1,159,-8,-8,0,13,87,0,0,0.5,-0.5,-0.5,-0.5,-0.5,place,2020-06-29_14h12.51.844,Tymula Experiment,3.2.3,Linux x86_64,60
,,left,2.838000059,1,0,160,109,1,159,50,50,0,38,38,0.156,24,0.5,-0.5,-0.5,-0.5,-0.5,place,2020-06-29_14h12.51.844,Tymula Experiment,3.2.3,Linux x86_64,60
,,left,2.273000002,1,0,160,81,1,159,-20,-20,0,25,75,0,0,0.5,-0.5,-0.5,-0.5,-0.5,place,2020-06-29_14h12.51.844,Tymula Experiment,3.2.3,Linux x86_64,60
,,left,5.273999929,1,0,160,22,1,159,-5,-5,0,25,25,0.325,50,0.5,-0.5,-0.5,-0.5,-0.5,place,2020-06-29_14h12.51.844,Tymula Experiment,3.2.3,Linux x86_64,60
,,right,2.59100008,1,0,160,108,1,159,50,50,0,75,25,0,0,-0.5,0.5,0.5,0.5,0.5,place,2020-06-29_14h12.51.844,Tymula Experiment,3.2.3,Linux x86_64,60
,,right,1.427000046,1,0,160,59,1,159,-8,-8,0,50,50,0,0,-0.5,0.5,0.5,0.5,0.5,place,2020-06-29_14h12.51.844,Tymula Experiment,3.2.3,Linux x86_64,60
,,left,2.008000135,1,0,160,13,1,159,5,5,0,38,38,0.156,24,0.5,-0.5,-0.5,-0.5,-0.5,place,2020-06-29_14h12.51.844,Tymula Experiment,3.2.3,Linux x86_64,60
,,left,3.39199996,1,0,160,78,1,159,20,20,0,25,25,0.325,50,-0.5,0.5,0.5,0.5,0.5,place,2020-06-29_14h12.51.844,Tymula Experiment,3.2.3,Linux x86_64,60
,,left,1.448000193,1,0,160,33,1,159,8,8,0,25,75,0,0,0.5,-0.5,-0.5,-0.5,-0.5,place,2020-06-29_14h12.51.844,Tymula Experiment,3.2.3,Linux x86_64,60
,,left,1.911000252,1,0,160,128,1,159,125,125,0,13,87,0,0,-0.5,0.5,0.5,0.5,0.5,place,2020-06-29_14h12.51.844,Tymula Experiment,3.2.3,Linux x86_64,60
,,right,1.507000208,1,0,160,2,1,159,5,5,0,38,62,0,0,-0.5,0.5,0.5,0.5,0.5,place,2020-06-29_14h12.51.844,Tymula Experiment,3.2.3,Linux x86_64,60
,,right,9.89800024,1,0,160,55,1,159,-8,-8,0,13,13,0.481,74,-0.5,0.5,0.5,0.5,0.5,place,2020-06-29_14h12.51.844,Tymula Experiment,3.2.3,Linux x86_64,60
,,right,1.041000128,1,0,160,64,1,159,20,20,0,13,87,0,0,-0.5,0.5,0.5,0.5,0.5,place,2020-06-29_14h12.51.844,Tymula Experiment,3.2.3,Linux x86_64,60
,,left,1.594000101,1,0,160,74,1,159,20,20,0,38,62,0,0,0.5,-0.5,-0.5,-0.5,-0.5,place,2020-06-29_14h12.51.844,Tymula Experiment,3.2.3,Linux x86_64,60
,,right,1.779999971,1,0,160,34,1,159,8,8,0,38,62,0,0,-0.5,0.5,0.5,0.5,0.5,place,2020-06-29_14h12.51.844,Tymula Experiment,3.2.3,Linux x86_64,60
,,left,1.605000257,1,0,160,67,1,159,20,20,0,50,50,0,0,0.5,-0.5,-0.5,-0.5,-0.5,place,2020-06-29_14h12.51.844,Tymula Experiment,3.2.3,Linux x86_64,60
,,left,10.8440001,1,0,160,96,1,159,50,50,0,13,87,0,0,-0.5,0.5,0.5,0.5,0.5,place,2020-06-29_14h12.51.844,Tymula Experiment,3.2.3,Linux x86_64,60
,,left,1.707999945,1,0,160,17,1,159,-5,-5,0,25,75,0,0,0.5,-0.5,-0.5,-0.5,-0.5,place,2020-06-29_14h12.51.844,Tymula Experiment,3.2.3,Linux x86_64,60
,,right,1.556000233,1,0,160,66,1,159,20,20,0,38,62,0,0,-0.5,0.5,0.5,0.5,0.5,place,2020-06-29_14h12.51.844,Tymula Experiment,3.2.3,Linux x86_64,60
,,right,1.376000166,1,0,160,73,1,159,20,20,0,25,75,0,0,-0.5,0.5,0.5,0.5,0.5,place,2020-06-29_14h12.51.844,Tymula Experiment,3.2.3,Linux x86_64,60
,,right,6.361999989,1,0,160,151,1,159,-125,-125,0,13,13,0.481,74,-0.5,0.5,0.5,0.5,0.5,place,2020-06-29_14h12.51.844,Tymula Experiment,3.2.3,Linux x86_64,60
,,right,3.715000153,1,0,160,99,1,159,50,50,0,50,50,0,0,0.5,-0.5,-0.5,-0.5,-0.5,place,2020-06-29_14h12.51.844,Tymula Experiment,3.2.3,Linux x86_64,60
,,left,2.162000179,1,0,160,101,1,159,50,50,0,38,38,0.156,24,-0.5,0.5,0.5,0.5,0.5,place,2020-06-29_14h12.51.844,Tymula Experiment,3.2.3,Linux x86_64,60
,,left,1.274000168,1,0,160,142,1,159,125,125,0,25,25,0.325,50,-0.5,0.5,0.5,0.5,0.5,place,2020-06-29_14h12.51.844,Tymula Experiment,3.2.3,Linux x86_64,60
,,left,1.923000097,1,0,160,7,1,159,5,5,0,13,13,0.481,74,-0.5,0.5,0.5,0.5,0.5,place,2020-06-29_14h12.51.844,Tymula Experiment,3.2.3,Linux x86_64,60
,,right,1.690999985,1,0,160,124,1,159,-50,-50,0,75,25,0,0,-0.5,0.5,0.5,0.5,0.5,place,2020-06-29_14h12.51.844,Tymula Experiment,3.2.3,Linux x86_64,60
,,right,1.461000204,1,0,160,50,1,159,-8,-8,0,38,62,0,0,-0.5,0.5,0.5,0.5,0.5,place,2020-06-29_14h12.51.844,Tymula Experiment,3.2.3,Linux x86_64,60
,,left,2.356000185,1,0,160,19,1,159,-5,-5,0,50,50,0,0,0.5,-0.5,-0.5,-0.5,-0.5,place,2020-06-29_14h12.51.844,Tymula Experiment,3.2.3,Linux x86_64,60
,,right,3.113000154,1,0,160,87,1,159,-20,-20,0,13,13,0.481,74,-0.5,0.5,0.5,0.5,0.5,place,2020-06-29_14h12.51.844,Tymula Experiment,3.2.3,Linux x86_64,60
,,left,1.577000141,1,0,160,150,1,159,-125,-125,0,25,25,0.325,50,0.5,-0.5,-0.5,-0.5,-0.5,place,2020-06-29_14h12.51.844,Tymula Experiment,3.2.3,Linux x86_64,60
,,right,2.458000183,1,0,160,131,1,159,125,125,0,50,50,0,0,0.5,-0.5,-0.5,-0.5,-0.5,place,2020-06-29_14h12.51.844,Tymula Experiment,3.2.3,Linux x86_64,60
,,right,1.580000162,1,0,160,121,1,159,-50,-50,0,25,75,0,0,-0.5,0.5,0.5,0.5,0.5,place,2020-06-29_14h12.51.844,Tymula Experiment,3.2.3,Linux x86_64,60
,,left,8.023000002,1,0,160,63,1,159,-8,-8,0,13,13,0.481,74,0.5,-0.5,-0.5,-0.5,-0.5,place,2020-06-29_14h12.51.844,Tymula Experiment,3.2.3,Linux x86_64,60
,,right,1.508000135,1,0,160,153,1,159,-125,-125,0,25,75,0,0,-0.5,0.5,0.5,0.5,0.5,place,2020-06-29_14h12.51.844,Tymula Experiment,3.2.3,Linux x86_64,60
,,right,1.036000252,1,0,160,46,1,159,8,8,0,25,25,0.325,50,-0.5,0.5,0.5,0.5,0.5,place,2020-06-29_14h12.51.844,Tymula Experiment,3.2.3,Linux x86_64,60
,,left,1.593000174,1,0,160,154,1,159,-125,-125,0,38,62,0,0,0.5,-0.5,-0.5,-0.5,-0.5,place,2020-06-29_14h12.51.844,Tymula Experiment,3.2.3,Linux x86_64,60
,,right,3.088000059,1,0,160,102,1,159,50,50,0,25,25,0.325,50,0.5,-0.5,-0.5,-0.5,-0.5,place,2020-06-29_14h12.51.844,Tymula Experiment,3.2.3,Linux x86_64,60
,,left,1.337000132,1,0,160,122,1,159,-50,-50,0,38,62,0,0,0.5,-0.5,-0.5,-0.5,-0.5,place,2020-06-29_14h12.51.844,Tymula Experiment,3.2.3,Linux x86_64,60
,,right,2.847000122,1,0,160,57,1,159,-8,-8,0,25,75,0,0,-0.5,0.5,0.5,0.5,0.5,place,2020-06-29_14h12.51.844,Tymula Experiment,3.2.3,Linux x86_64,60
,,right,1.680000067,1,0,160,146,1,159,-125,-125,0,38,62,0,0,-0.5,0.5,0.5,0.5,0.5,place,2020-06-29_14h12.51.844,Tymula Experiment,3.2.3,Linux x86_64,60
,,left,3.545000076,1,0,160,118,1,159,-50,-50,0,25,25,0.325,50,0.5,-0.5,-0.5,-0.5,-0.5,place,2020-06-29_14h12.51.844,Tymula Experiment,3.2.3,Linux x86_64,60
,,left,4.15199995,1,0,160,6,1,159,5,5,0,25,25,0.325,50,0.5,-0.5,-0.5,-0.5,-0.5,place,2020-06-29_14h12.51.844,Tymula Experiment,3.2.3,Linux x86_64,60
,,right,2.534000158,1,0,160,114,1,159,-50,-50,0,38,62,0,0,-0.5,0.5,0.5,0.5,0.5,place,2020-06-29_14h12.51.844,Tymula Experiment,3.2.3,Linux x86_64,60
,,right,1.774000168,1,0,160,136,1,159,125,125,0,13,87,0,0,0.5,-0.5,-0.5,-0.5,-0.5,place,2020-06-29_14h12.51.844,Tymula Experiment,3.2.3,Linux x86_64,60
,,right,2.99000001,1,0,160,30,1,159,-5,-5,0,25,25,0.325,50,-0.5,0.5,0.5,0.5,0.5,place,2020-06-29_14h12.51.844,Tymula Experiment,3.2.3,Linux x86_64,60
,,right,1.228000164,1,0,160,18,1,159,-5,-5,0,38,62,0,0,-0.5,0.5,0.5,0.5,0.5,place,2020-06-29_14h12.51.844,Tymula Experiment,3.2.3,Linux x86_64,60
,,left,2.542999983,1,0,160,23,1,159,-5,-5,0,13,13,0.481,74,-0.5,0.5,0.5,0.5,0.5,place,2020-06-29_14h12.51.844,Tymula Experiment,3.2.3,Linux x86_64,60
,,left,1.747999907,1,0,160,8,1,159,5,5,0,13,87,0,0,0.5,-0.5,-0.5,-0.5,-0.5,place,2020-06-29_14h12.51.844,Tymula Experiment,3.2.3,Linux x86_64,60
,,left,1.106000185,1,0,160,58,1,159,-8,-8,0,38,62,0,0,0.5,-0.5,-0.5,-0.5,-0.5,place,2020-06-29_14h12.51.844,Tymula Experiment,3.2.3,Linux x86_64,60
,,left,2.809999943,1,0,160,72,1,159,20,20,0,13,87,0,0,0.5,-0.5,-0.5,-0.5,-0.5,place,2020-06-29_14h12.51.844,Tymula Experiment,3.2.3,Linux x86_64,60
,,right,1.726000071,1,0,160,76,1,159,20,20,0,75,25,0,0,-0.5,0.5,0.5,0.5,0.5,place,2020-06-29_14h12.51.844,Tymula Experiment,3.2.3,Linux x86_64,60
,,left,2.364000082,1,0,160,77,1,159,20,20,0,38,38,0.156,24,0.5,-0.5,-0.5,-0.5,-0.5,place,2020-06-29_14h12.51.844,Tymula Experiment,3.2.3,Linux x86_64,60
,,right,3.201000214,1,0,160,94,1,159,-20,-20,0,25,25,0.325,50,-0.5,0.5,0.5,0.5,0.5,place,2020-06-29_14h12.51.844,Tymula Experiment,3.2.3,Linux x86_64,60
,,right,3.241000175,1,0,160,70,1,159,20,20,0,25,25,0.325,50,0.5,-0.5,-0.5,-0.5,-0.5,place,2020-06-29_14h12.51.844,Tymula Experiment,3.2.3,Linux x86_64,60
,,right,1.464000225,1,0,160,144,1,159,-125,-125,0,13,87,0,0,-0.5,0.5,0.5,0.5,0.5,place,2020-06-29_14h12.51.844,Tymula Experiment,3.2.3,Linux x86_64,60
,,right,1.776000023,1,0,160,52,1,159,-8,-8,0,75,25,0,0,-0.5,0.5,0.5,0.5,0.5,place,2020-06-29_14h12.51.844,Tymula Experiment,3.2.3,Linux x86_64,60
,,left,3.213000059,1,0,160,86,1,159,-20,-20,0,25,25,0.325,50,0.5,-0.5,-0.5,-0.5,-0.5,place,2020-06-29_14h12.51.844,Tymula Experiment,3.2.3,Linux x86_64,60
,,left,1.463000059,1,0,160,140,1,159,125,125,0,75,25,0,0,-0.5,0.5,0.5,0.5,0.5,place,2020-06-29_14h12.51.844,Tymula Experiment,3.2.3,Linux x86_64,60
,,right,4.348999977,1,0,160,119,1,159,-50,-50,0,13,13,0.481,74,-0.5,0.5,0.5,0.5,0.5,place,2020-06-29_14h12.51.844,Tymula Experiment,3.2.3,Linux x86_64,60
,,right,1.634000063,1,0,160,98,1,159,50,50,0,38,62,0,0,-0.5,0.5,0.5,0.5,0.5,place,2020-06-29_14h12.51.844,Tymula Experiment,3.2.3,Linux x86_64,60
,,right,1.342999935,1,0,160,28,1,159,-5,-5,0,75,25,0,0,-0.5,0.5,0.5,0.5,0.5,place,2020-06-29_14h12.51.844,Tymula Experiment,3.2.3,Linux x86_64,60
,,right,1.562000036,1,0,160,16,1,159,-5,-5,0,13,87,0,0,-0.5,0.5,0.5,0.5,0.5,place,2020-06-29_14h12.51.844,Tymula Experiment,3.2.3,Linux x86_64,60
,,left,3.092000008,1,0,160,115,1,159,-50,-50,0,50,50,0,0,0.5,-0.5,-0.5,-0.5,-0.5,place,2020-06-29_14h12.51.844,Tymula Experiment,3.2.3,Linux x86_64,60
,,right,1.929000139,1,0,160,41,1,159,8,8,0,25,75,0,0,-0.5,0.5,0.5,0.5,0.5,place,2020-06-29_14h12.51.844,Tymula Experiment,3.2.3,Linux x86_64,60
,,right,1.363000154,1,0,160,138,1,159,125,125,0,38,62,0,0,0.5,-0.5,-0.5,-0.5,-0.5,place,2020-06-29_14h12.51.844,Tymula Experiment,3.2.3,Linux x86_64,60
,,left,1.476999998,1,0,160,145,1,159,-125,-125,0,25,75,0,0,0.5,-0.5,-0.5,-0.5,-0.5,place,2020-06-29_14h12.51.844,Tymula Experiment,3.2.3,Linux x86_64,60
,,left,1.078000069,1,0,160,51,1,159,-8,-8,0,50,50,0,0,0.5,-0.5,-0.5,-0.5,-0.5,place,2020-06-29_14h12.51.844,Tymula Experiment,3.2.3,Linux x86_64,60
,,right,2.095000029,1,0,160,12,1,159,5,5,0,75,25,0,0,-0.5,0.5,0.5,0.5,0.5,place,2020-06-29_14h12.51.844,Tymula Experiment,3.2.3,Linux x86_64,60
,,right,3.648999929,1,0,160,106,1,159,50,50,0,38,62,0,0,0.5,-0.5,-0.5,-0.5,-0.5,place,2020-06-29_14h12.51.844,Tymula Experiment,3.2.3,Linux x86_64,60
,,right,1.295000076,1,0,160,9,1,159,5,5,0,25,75,0,0,-0.5,0.5,0.5,0.5,0.5,place,2020-06-29_14h12.51.844,Tymula Experiment,3.2.3,Linux x86_64,60
,,right,1.373000145,1,0,160,134,1,159,125,125,0,25,25,0.325,50,0.5,-0.5,-0.5,-0.5,-0.5,place,2020-06-29_14h12.51.844,Tymula Experiment,3.2.3,Linux x86_64,60
,,left,1.909000158,1,0,160,139,1,159,125,125,0,50,50,0,0,-0.5,0.5,0.5,0.5,0.5,place,2020-06-29_14h12.51.844,Tymula Experiment,3.2.3,Linux x86_64,60
,,left,3.328000069,1,0,160,95,1,159,-20,-20,0,13,13,0.481,74,0.5,-0.5,-0.5,-0.5,-0.5,place,2020-06-29_14h12.51.844,Tymula Experiment,3.2.3,Linux x86_64,60
,,left,1.262000084,1,0,160,130,1,159,125,125,0,38,62,0,0,-0.5,0.5,0.5,0.5,0.5,place,2020-06-29_14h12.51.844,Tymula Experiment,3.2.3,Linux x86_64,60
,,right,2.157000065,1,0,160,47,1,159,8,8,0,13,13,0.481,74,0.5,-0.5,-0.5,-0.5,-0.5,place,2020-06-29_14h12.51.844,Tymula Experiment,3.2.3,Linux x86_64,60
,,right,2.444000244,1,0,160,53,1,159,-8,-8,0,38,38,0.156,24,-0.5,0.5,0.5,0.5,0.5,place,2020-06-29_14h12.51.844,Tymula Experiment,3.2.3,Linux x86_64,60
,,right,1.542999983,1,0,160,112,1,159,-50,-50,0,13,87,0,0,-0.5,0.5,0.5,0.5,0.5,place,2020-06-29_14h12.51.844,Tymula Experiment,3.2.3,Linux x86_64,60
,,right,1.865000248,1,0,160,0,1,159,5,5,0,13,87,0,0,-0.5,0.5,0.5,0.5,0.5,place,2020-06-29_14h12.51.844,Tymula Experiment,3.2.3,Linux x86_64,60
,,right,1.625,1,0,160,32,1,159,8,8,0,13,87,0,0,-0.5,0.5,0.5,0.5,0.5,place,2020-06-29_14h12.51.844,Tymula Experiment,3.2.3,Linux x86_64,60
,,right,2.628000021,1,0,160,21,1,159,-5,-5,0,38,38,0.156,24,-0.5,0.5,0.5,0.5,0.5,place,2020-06-29_14h12.51.844,Tymula Experiment,3.2.3,Linux x86_64,60
,,left,2.294000149,1,0,160,24,1,159,-5,-5,0,13,87,0,0,0.5,-0.5,-0.5,-0.5,-0.5,place,2020-06-29_14h12.51.844,Tymula Experiment,3.2.3,Linux x86_64,60
,,left,1.156000137,1,0,160,42,1,159,8,8,0,38,62,0,0,0.5,-0.5,-0.5,-0.5,-0.5,place,2020-06-29_14h12.51.844,Tymula Experiment,3.2.3,Linux x86_64,60
,,right,1.944000006,1,0,160,156,1,159,-125,-125,0,75,25,0,0,-0.5,0.5,0.5,0.5,0.5,place,2020-06-29_14h12.51.844,Tymula Experiment,3.2.3,Linux x86_64,60
,,right,2.053000212,1,0,160,100,1,159,50,50,0,75,25,0,0,-0.5,0.5,0.5,0.5,0.5,place,2020-06-29_14h12.51.844,Tymula Experiment,3.2.3,Linux x86_64,60
,,left,2.133000135,1,0,160,3,1,159,5,5,0,50,50,0,0,0.5,-0.5,-0.5,-0.5,-0.5,place,2020-06-29_14h12.51.844,Tymula Experiment,3.2.3,Linux x86_64,60
,,left,1.141000271,1,0,160,132,1,159,125,125,0,75,25,0,0,-0.5,0.5,0.5,0.5,0.5,place,2020-06-29_14h12.51.844,Tymula Experiment,3.2.3,Linux x86_64,60
,,left,3.641000032,1,0,160,120,1,159,-50,-50,0,13,87,0,0,0.5,-0.5,-0.5,-0.5,-0.5,place,2020-06-29_14h12.51.844,Tymula Experiment,3.2.3,Linux x86_64,60
,,left,5.897000074,1,0,160,159,1,159,-125,-125,0,13,13,0.481,74,0.5,-0.5,-0.5,-0.5,-0.5,place,2020-06-29_14h12.51.844,Tymula Experiment,3.2.3,Linux x86_64,60
,,right,2.125,1,0,160,158,1,159,-125,-125,0,25,25,0.325,50,-0.5,0.5,0.5,0.5,0.5,place,2020-06-29_14h12.51.844,Tymula Experiment,3.2.3,Linux x86_64,60
,,right,2.775000095,1,0,160,126,1,159,-50,-50,0,25,25,0.325,50,-0.5,0.5,0.5,0.5,0.5,place,2020-06-29_14h12.51.844,Tymula Experiment,3.2.3,Linux x86_64,60
,,right,1.859000206,1,0,160,111,1,159,50,50,0,13,13,0.481,74,0.5,-0.5,-0.5,-0.5,-0.5,place,2020-06-29_14h12.51.844,Tymula Experiment,3.2.3,Linux x86_64,60
,,left,2.467000008,1,0,160,38,1,159,8,8,0,25,25,0.325,50,0.5,-0.5,-0.5,-0.5,-0.5,place,2020-06-29_14h12.51.844,Tymula Experiment,3.2.3,Linux x86_64,60
,,right,2.337000132,1,0,160,91,1,159,-20,-20,0,50,50,0,0,-0.5,0.5,0.5,0.5,0.5,place,2020-06-29_14h12.51.844,Tymula Experiment,3.2.3,Linux x86_64,60
,,left,2.04399991,1,0,160,49,1,159,-8,-8,0,25,75,0,0,0.5,-0.5,-0.5,-0.5,-0.5,place,2020-06-29_14h12.51.844,Tymula Experiment,3.2.3,Linux x86_64,60
,,left,1.384000063,1,0,160,88,1,159,-20,-20,0,13,87,0,0,0.5,-0.5,-0.5,-0.5,-0.5,place,2020-06-29_14h12.51.844,Tymula Experiment,3.2.3,Linux x86_64,60
,,right,1.894000053,1,0,160,141,1,159,125,125,0,38,38,0.156,24,0.5,-0.5,-0.5,-0.5,-0.5,place,2020-06-29_14h12.51.844,Tymula Experiment,3.2.3,Linux x86_64,60
,,left,2.796999931,1,0,160,65,1,159,20,20,0,25,75,0,0,0.5,-0.5,-0.5,-0.5,-0.5,place,2020-06-29_14h12.51.844,Tymula Experiment,3.2.3,Linux x86_64,60
,,right,1.610000134,1,0,160,148,1,159,-125,-125,0,75,25,0,0,-0.5,0.5,0.5,0.5,0.5,place,2020-06-29_14h12.51.844,Tymula Experiment,3.2.3,Linux x86_64,60
