Sure,OptionOne,OptionTwo,Risk,Risk2,AmbiguityBarH,Ambiguity,SureXPos,RiskXPos,OptionOneXPos,OptionTwoXPos,RiskX,trials.thisRepN,trials.thisTrialN,trials.thisN,trials.thisIndex,instruct_text_1.started,instruct_text_1.stopped,instruct_text_2.started,instruct_text_2.stopped,instruct_text_3.started,instruct_text_3.stopped,instruct_text_4.started,instruct_text_4.stopped,tut_sure.started,tut_sure.stopped,Tutbackdrop.started,Tutbackdrop.stopped,instruct_text_5.started,instruct_text_5.stopped,instruct_text_6.started,instruct_text_6.stopped,Tutbackdrop_2.started,Tutbackdrop_2.stopped,instruct_text_7.started,instruct_text_7.stopped,instruct_text_8.started,instruct_text_8.stopped,TutArrowTop.started,TutArrowTop.stopped,TutArrowBottom.started,TutArrowBottom.stopped,Tutbackdrop_3.started,Tutbackdrop_3.stopped,instruct_text_9.started,instruct_text_9.stopped,instruct_text_10.started,instruct_text_10.stopped,TutArrowTop_2.started,TutArrowTop_2.stopped,TutArrowBottom_2.started,TutArrowBottom_2.stopped,Tutbackdrop_5.started,Tutbackdrop_5.stopped,instruct_text_11.started,instruct_text_11.stopped,instruct_text_12.started,instruct_text_12.stopped,TutArrowTop_3.started,TutArrowTop_3.stopped,instruct_text_13.started,instruct_text_13.stopped,instruct_text_14.started,instruct_text_14.stopped,key_resp.keys,key_resp.rt,key_resp.started,key_resp.stopped,Red_Square.started,Red_Square.stopped,Blue_Square.started,Blue_Square.stopped,sure.started,sure.stopped,or_text.started,or_text.stopped,Option_One.started,Option_One.stopped,Option_Two.started,Option_Two.stopped,Risk_Text_Top.started,Risk_Text_Top.stopped,Risk_Text_Bottom.started,Risk_Text_Bottom.stopped,Ambiguity_Bar.started,Ambiguity_Bar.stopped,endscreen_text.started,endscreen_text.stopped,participant,date,expName,psychopyVersion,frameRate,
8,8,0,38,38,0.156,24,-0.5,0.5,0.5,0.5,0.5,0,0,0,37,16.577364700002363,None,16.577364700002363,None,17.678591700008838,None,17.678591700008838,None,17.678591700008838,None,18.47393559999182,None,18.47393559999182,None,18.47393559999182,None,19.12457769998582,None,19.12457769998582,None,19.12457769998582,None,19.12457769998582,None,19.12457769998582,None,19.767903900006786,None,19.767903900006786,None,19.767903900006786,None,19.767903900006786,None,19.767903900006786,None,20.363223099993775,None,20.363223099993775,None,20.363223099993775,None,20.363223099993775,None,20.789534599985927,None,20.789534599985927,None,left,2.191602499980945,21.776902000012342,None,21.776902000012342,None,21.776902000012342,None,21.776902000012342,None,21.776902000012342,None,21.776902000012342,None,21.776902000012342,None,21.776902000012342,None,21.776902000012342,None,21.776902000012342,None,,,possum,2020_Jun_23_0832,Tymula Experiment,3.2.3,59.98890205940092,
-50,-50,0,50,50,0.0,0,0.5,-0.5,-0.5,-0.5,-0.5,0,1,1,115,,,,,,,,,,,,,,,,,,,,,,,,,,,,,,,,,,,,,,,,,,,,,,,,,right,0.6762015999993309,24.13566410000203,None,24.13566410000203,None,24.13566410000203,None,24.13566410000203,None,24.13566410000203,None,24.13566410000203,None,24.13566410000203,None,24.13566410000203,None,24.13566410000203,None,24.13566410000203,None,,,possum,2020_Jun_23_0832,Tymula Experiment,3.2.3,59.98890205940092,
-5,-5,0,25,75,0.0,0,-0.5,0.5,0.5,0.5,0.5,0,2,2,25,,,,,,,,,,,,,,,,,,,,,,,,,,,,,,,,,,,,,,,,,,,,,,,,,left,0.43001700000604615,24.92436499998439,None,24.92436499998439,None,24.92436499998439,None,24.92436499998439,None,24.92436499998439,None,24.92436499998439,None,24.92436499998439,None,24.92436499998439,None,24.92436499998439,None,24.92436499998439,None,,,possum,2020_Jun_23_0832,Tymula Experiment,3.2.3,59.98890205940092,
-8,-8,0,38,38,0.156,24,-0.5,0.5,0.5,0.5,0.5,0,3,3,53,,,,,,,,,,,,,,,,,,,,,,,,,,,,,,,,,,,,,,,,,,,,,,,,,right,0.3513784999959171,25.440700899984222,None,25.440700899984222,None,25.440700899984222,None,25.440700899984222,None,25.440700899984222,None,25.440700899984222,None,25.440700899984222,None,25.440700899984222,None,25.440700899984222,None,25.440700899984222,None,,,possum,2020_Jun_23_0832,Tymula Experiment,3.2.3,59.98890205940092,
5,5,0,38,38,0.156,24,0.5,-0.5,-0.5,-0.5,-0.5,0,4,4,13,,,,,,,,,,,,,,,,,,,,,,,,,,,,,,,,,,,,,,,,,,,,,,,,,left,0.38509470000281,25.87365689998842,None,25.87365689998842,None,25.87365689998842,None,25.87365689998842,None,25.87365689998842,None,25.87365689998842,None,25.87365689998842,None,25.87365689998842,None,25.87365689998842,None,25.87365689998842,None,,,possum,2020_Jun_23_0832,Tymula Experiment,3.2.3,59.98890205940092,
-50,-50,0,25,25,0.325,50,-0.5,0.5,0.5,0.5,0.5,0,5,5,126,,,,,,,,,,,,,,,,,,,,,,,,,,,,,,,,,,,,,,,,,,,,,,,,,right,0.23624109997763298,26.351491599984,None,26.351491599984,None,26.351491599984,None,26.351491599984,None,26.351491599984,None,26.351491599984,None,26.351491599984,None,26.351491599984,None,26.351491599984,None,26.351491599984,None,,,possum,2020_Jun_23_0832,Tymula Experiment,3.2.3,59.98890205940092,
50,50,0,13,13,0.481,74,-0.5,0.5,0.5,0.5,0.5,0,6,6,103,,,,,,,,,,,,,,,,,,,,,,,,,,,,,,,,,,,,,,,,,,,,,,,,,left,0.2556689000048209,26.689643899997463,None,26.689643899997463,None,26.689643899997463,None,26.689643899997463,None,26.689643899997463,None,26.689643899997463,None,26.689643899997463,None,26.689643899997463,None,26.689643899997463,None,26.689643899997463,None,,,possum,2020_Jun_23_0832,Tymula Experiment,3.2.3,59.98890205940092,
8,8,0,25,25,0.325,50,0.5,-0.5,-0.5,-0.5,-0.5,0,7,7,38,,,,,,,,,,,,,,,,,,,,,,,,,,,,,,,,,,,,,,,,,,,,,,,,,right,0.2033417000202462,27.03080469998531,None,27.03080469998531,None,27.03080469998531,None,27.03080469998531,None,27.03080469998531,None,27.03080469998531,None,27.03080469998531,None,27.03080469998531,None,27.03080469998531,None,27.03080469998531,None,,,possum,2020_Jun_23_0832,Tymula Experiment,3.2.3,59.98890205940092,
-8,-8,0,38,62,0.0,0,-0.5,0.5,0.5,0.5,0.5,0,8,8,50,,,,,,,,,,,,,,,,,,,,,,,,,,,,,,,,,,,,,,,,,,,,,,,,,left,0.24725470002158545,27.276466200011782,None,27.276466200011782,None,27.276466200011782,None,27.276466200011782,None,27.276466200011782,None,27.276466200011782,None,27.276466200011782,None,27.276466200011782,None,27.276466200011782,None,27.276466200011782,None,,,possum,2020_Jun_23_0832,Tymula Experiment,3.2.3,59.98890205940092,
50,50,0,38,38,0.156,24,0.5,-0.5,-0.5,-0.5,-0.5,0,9,9,109,,,,,,,,,,,,,,,,,,,,,,,,,,,,,,,,,,,,,,,,,,,,,,,,,right,0.17994599998928607,27.6049750999955,None,27.6049750999955,None,27.6049750999955,None,27.6049750999955,None,27.6049750999955,None,27.6049750999955,None,27.6049750999955,None,27.6049750999955,None,27.6049750999955,None,27.6049750999955,None,,,possum,2020_Jun_23_0832,Tymula Experiment,3.2.3,59.98890205940092,
8,8,0,13,87,0.0,0,0.5,-0.5,-0.5,-0.5,-0.5,0,10,10,40,,,,,,,,,,,,,,,,,,,,,,,,,,,,,,,,,,,,,,,,,,,,,,,,,left,0.12332310000783764,27.887622799986275,None,27.887622799986275,None,27.887622799986275,None,27.887622799986275,None,27.887622799986275,None,27.887622799986275,None,27.887622799986275,None,27.887622799986275,None,27.887622799986275,None,27.887622799986275,None,,,possum,2020_Jun_23_0832,Tymula Experiment,3.2.3,59.98890205940092,
-125,-125,0,25,25,0.325,50,0.5,-0.5,-0.5,-0.5,-0.5,0,11,11,150,,,,,,,,,,,,,,,,,,,,,,,,,,,,,,,,,,,,,,,,,,,,,,,,,right,0.12896790000377223,28.1390151999949,None,28.1390151999949,None,28.1390151999949,None,28.1390151999949,None,28.1390151999949,None,28.1390151999949,None,28.1390151999949,None,28.1390151999949,None,28.1390151999949,None,28.1390151999949,None,,,possum,2020_Jun_23_0832,Tymula Experiment,3.2.3,59.98890205940092,
8,8,0,25,25,0.325,50,-0.5,0.5,0.5,0.5,0.5,0,12,12,46,,,,,,,,,,,,,,,,,,,,,,,,,,,,,,,,,,,,,,,,,,,,,,,,,left,0.17516719998093322,28.315737299999455,None,28.315737299999455,None,28.315737299999455,None,28.315737299999455,None,28.315737299999455,None,28.315737299999455,None,28.315737299999455,None,28.315737299999455,None,28.315737299999455,None,28.315737299999455,None,,,possum,2020_Jun_23_0832,Tymula Experiment,3.2.3,59.98890205940092,
-8,-8,0,38,62,0.0,0,0.5,-0.5,-0.5,-0.5,-0.5,0,13,13,58,,,,,,,,,,,,,,,,,,,,,,,,,,,,,,,,,,,,,,,,,,,,,,,,,right,0.20143240000470541,28.575488800008316,None,28.575488800008316,None,28.575488800008316,None,28.575488800008316,None,28.575488800008316,None,28.575488800008316,None,28.575488800008316,None,28.575488800008316,None,28.575488800008316,None,28.575488800008316,None,,,possum,2020_Jun_23_0832,Tymula Experiment,3.2.3,59.98890205940092,
-20,-20,0,25,25,0.325,50,0.5,-0.5,-0.5,-0.5,-0.5,0,14,14,86,,,,,,,,,,,,,,,,,,,,,,,,,,,,,,,,,,,,,,,,,,,,,,,,,left,0.14768940000794828,28.87446110000019,None,28.87446110000019,None,28.87446110000019,None,28.87446110000019,None,28.87446110000019,None,28.87446110000019,None,28.87446110000019,None,28.87446110000019,None,28.87446110000019,None,28.87446110000019,None,,,possum,2020_Jun_23_0832,Tymula Experiment,3.2.3,59.98890205940092,
50,50,0,13,13,0.481,74,0.5,-0.5,-0.5,-0.5,-0.5,0,15,15,111,,,,,,,,,,,,,,,,,,,,,,,,,,,,,,,,,,,,,,,,,,,,,,,,,right,0.22981180000351742,29.084050600009505,None,29.084050600009505,None,29.084050600009505,None,29.084050600009505,None,29.084050600009505,None,29.084050600009505,None,29.084050600009505,None,29.084050600009505,None,29.084050600009505,None,29.084050600009505,None,,,possum,2020_Jun_23_0832,Tymula Experiment,3.2.3,59.98890205940092,
8,8,0,13,87,0.0,0,-0.5,0.5,0.5,0.5,0.5,0,16,16,32,,,,,,,,,,,,,,,,,,,,,,,,,,,,,,,,,,,,,,,,,,,,,,,,,left,0.13966460002120584,29.398527699988335,None,29.398527699988335,None,29.398527699988335,None,29.398527699988335,None,29.398527699988335,None,29.398527699988335,None,29.398527699988335,None,29.398527699988335,None,29.398527699988335,None,29.398527699988335,None,,,possum,2020_Jun_23_0832,Tymula Experiment,3.2.3,59.98890205940092,
-8,-8,0,13,87,0.0,0,0.5,-0.5,-0.5,-0.5,-0.5,0,17,17,56,,,,,,,,,,,,,,,,,,,,,,,,,,,,,,,,,,,,,,,,,,,,,,,,,right,0.17057180000119843,29.62846229999559,None,29.62846229999559,None,29.62846229999559,None,29.62846229999559,None,29.62846229999559,None,29.62846229999559,None,29.62846229999559,None,29.62846229999559,None,29.62846229999559,None,29.62846229999559,None,,,possum,2020_Jun_23_0832,Tymula Experiment,3.2.3,59.98890205940092,
-8,-8,0,50,50,0.0,0,0.5,-0.5,-0.5,-0.5,-0.5,0,18,18,51,,,,,,,,,,,,,,,,,,,,,,,,,,,,,,,,,,,,,,,,,,,,,,,,,left,0.13052919998881407,29.890207299991744,None,29.890207299991744,None,29.890207299991744,None,29.890207299991744,None,29.890207299991744,None,29.890207299991744,None,29.890207299991744,None,29.890207299991744,None,29.890207299991744,None,29.890207299991744,None,,,possum,2020_Jun_23_0832,Tymula Experiment,3.2.3,59.98890205940092,
8,8,0,25,75,0.0,0,-0.5,0.5,0.5,0.5,0.5,0,19,19,41,,,,,,,,,,,,,,,,,,,,,,,,,,,,,,,,,,,,,,,,,,,,,,,,,right,0.16585769999073818,30.11296699999366,None,30.11296699999366,None,30.11296699999366,None,30.11296699999366,None,30.11296699999366,None,30.11296699999366,None,30.11296699999366,None,30.11296699999366,None,30.11296699999366,None,30.11296699999366,None,,,possum,2020_Jun_23_0832,Tymula Experiment,3.2.3,59.98890205940092,
-8,-8,0,25,25,0.325,50,-0.5,0.5,0.5,0.5,0.5,0,20,20,62,,,,,,,,,,,,,,,,,,,,,,,,,,,,,,,,,,,,,,,,,,,,,,,,,left,0.14087850000942126,30.372360799985472,None,30.372360799985472,None,30.372360799985472,None,30.372360799985472,None,30.372360799985472,None,30.372360799985472,None,30.372360799985472,None,30.372360799985472,None,30.372360799985472,None,30.372360799985472,None,,,possum,2020_Jun_23_0832,Tymula Experiment,3.2.3,59.98890205940092,
125,125,0,13,13,0.481,74,0.5,-0.5,-0.5,-0.5,-0.5,0,21,21,143,,,,,,,,,,,,,,,,,,,,,,,,,,,,,,,,,,,,,,,,,,,,,,,,,right,0.155462599999737,30.607519999990473,None,30.607519999990473,None,30.607519999990473,None,30.607519999990473,None,30.607519999990473,None,30.607519999990473,None,30.607519999990473,None,30.607519999990473,None,30.607519999990473,None,30.607519999990473,None,,,possum,2020_Jun_23_0832,Tymula Experiment,3.2.3,59.98890205940092,
-8,-8,0,50,50,0.0,0,-0.5,0.5,0.5,0.5,0.5,0,22,22,59,,,,,,,,,,,,,,,,,,,,,,,,,,,,,,,,,,,,,,,,,,,,,,,,,left,0.10902120001264848,30.858415499998955,None,30.858415499998955,None,30.858415499998955,None,30.858415499998955,None,30.858415499998955,None,30.858415499998955,None,30.858415499998955,None,30.858415499998955,None,30.858415499998955,None,30.858415499998955,None,,,possum,2020_Jun_23_0832,Tymula Experiment,3.2.3,59.98890205940092,
-20,-20,0,13,13,0.481,74,0.5,-0.5,-0.5,-0.5,-0.5,0,23,23,95,,,,,,,,,,,,,,,,,,,,,,,,,,,,,,,,,,,,,,,,,,,,,,,,,right,0.1525782000098843,31.064038399985293,None,31.064038399985293,None,31.064038399985293,None,31.064038399985293,None,31.064038399985293,None,31.064038399985293,None,31.064038399985293,None,31.064038399985293,None,31.064038399985293,None,31.064038399985293,None,,,possum,2020_Jun_23_0832,Tymula Experiment,3.2.3,59.98890205940092,
-50,-50,0,75,25,0.0,0,-0.5,0.5,0.5,0.5,0.5,0,24,24,124,,,,,,,,,,,,,,,,,,,,,,,,,,,,,,,,,,,,,,,,,,,,,,,,,left,0.10516360000474378,31.31140589999268,None,31.31140589999268,None,31.31140589999268,None,31.31140589999268,None,31.31140589999268,None,31.31140589999268,None,31.31140589999268,None,31.31140589999268,None,31.31140589999268,None,31.31140589999268,None,,,possum,2020_Jun_23_0832,Tymula Experiment,3.2.3,59.98890205940092,
5,5,0,38,62,0.0,0,0.5,-0.5,-0.5,-0.5,-0.5,0,25,25,10,,,,,,,,,,,,,,,,,,,,,,,,,,,,,,,,,,,,,,,,,,,,,,,,,right,0.14528479997534305,31.505351800005883,None,31.505351800005883,None,31.505351800005883,None,31.505351800005883,None,31.505351800005883,None,31.505351800005883,None,31.505351800005883,None,31.505351800005883,None,31.505351800005883,None,31.505351800005883,None,,,possum,2020_Jun_23_0832,Tymula Experiment,3.2.3,59.98890205940092,
-5,-5,0,50,50,0.0,0,-0.5,0.5,0.5,0.5,0.5,0,26,26,27,,,,,,,,,,,,,,,,,,,,,,,,,,,,,,,,,,,,,,,,,,,,,,,,,left,0.11423869998543523,31.739481700002216,None,31.739481700002216,None,31.739481700002216,None,31.739481700002216,None,31.739481700002216,None,31.739481700002216,None,31.739481700002216,None,31.739481700002216,None,31.739481700002216,None,31.739481700002216,None,,,possum,2020_Jun_23_0832,Tymula Experiment,3.2.3,59.98890205940092,
-125,-125,0,13,87,0.0,0,0.5,-0.5,-0.5,-0.5,-0.5,0,27,27,152,,,,,,,,,,,,,,,,,,,,,,,,,,,,,,,,,,,,,,,,,,,,,,,,,right,0.11467949999496341,31.946985899994615,None,31.946985899994615,None,31.946985899994615,None,31.946985899994615,None,31.946985899994615,None,31.946985899994615,None,31.946985899994615,None,31.946985899994615,None,31.946985899994615,None,31.946985899994615,None,,,possum,2020_Jun_23_0832,Tymula Experiment,3.2.3,59.98890205940092,
-50,-50,0,38,62,0.0,0,0.5,-0.5,-0.5,-0.5,-0.5,0,28,28,122,,,,,,,,,,,,,,,,,,,,,,,,,,,,,,,,,,,,,,,,,,,,,,,,,left,0.1534150000079535,32.1277248999977,None,32.1277248999977,None,32.1277248999977,None,32.1277248999977,None,32.1277248999977,None,32.1277248999977,None,32.1277248999977,None,32.1277248999977,None,32.1277248999977,None,32.1277248999977,None,,,possum,2020_Jun_23_0832,Tymula Experiment,3.2.3,59.98890205940092,
-20,-20,0,50,50,0.0,0,-0.5,0.5,0.5,0.5,0.5,0,29,29,91,,,,,,,,,,,,,,,,,,,,,,,,,,,,,,,,,,,,,,,,,,,,,,,,,right,0.15811610000673681,32.348986299999524,None,32.348986299999524,None,32.348986299999524,None,32.348986299999524,None,32.348986299999524,None,32.348986299999524,None,32.348986299999524,None,32.348986299999524,None,32.348986299999524,None,32.348986299999524,None,,,possum,2020_Jun_23_0832,Tymula Experiment,3.2.3,59.98890205940092,
50,50,0,38,38,0.156,24,-0.5,0.5,0.5,0.5,0.5,0,30,30,101,,,,,,,,,,,,,,,,,,,,,,,,,,,,,,,,,,,,,,,,,,,,,,,,,left,0.11959389998810366,32.58795899999677,None,32.58795899999677,None,32.58795899999677,None,32.58795899999677,None,32.58795899999677,None,32.58795899999677,None,32.58795899999677,None,32.58795899999677,None,32.58795899999677,None,32.58795899999677,None,,,possum,2020_Jun_23_0832,Tymula Experiment,3.2.3,59.98890205940092,
-50,-50,0,13,87,0.0,0,-0.5,0.5,0.5,0.5,0.5,0,31,31,112,,,,,,,,,,,,,,,,,,,,,,,,,,,,,,,,,,,,,,,,,,,,,,,,,right,0.11878740001702681,32.79754229998798,None,32.79754229998798,None,32.79754229998798,None,32.79754229998798,None,32.79754229998798,None,32.79754229998798,None,32.79754229998798,None,32.79754229998798,None,32.79754229998798,None,32.79754229998798,None,,,possum,2020_Jun_23_0832,Tymula Experiment,3.2.3,59.98890205940092,
20,20,0,50,50,0.0,0,-0.5,0.5,0.5,0.5,0.5,0,32,32,75,,,,,,,,,,,,,,,,,,,,,,,,,,,,,,,,,,,,,,,,,,,,,,,,,right,0.15336739999474958,33.01537159999134,None,33.01537159999134,None,33.01537159999134,None,33.01537159999134,None,33.01537159999134,None,33.01537159999134,None,33.01537159999134,None,33.01537159999134,None,33.01537159999134,None,33.01537159999134,None,,,possum,2020_Jun_23_0832,Tymula Experiment,3.2.3,59.98890205940092,
5,5,0,13,13,0.481,74,0.5,-0.5,-0.5,-0.5,-0.5,0,33,33,15,,,,,,,,,,,,,,,,,,,,,,,,,,,,,,,,,,,,,,,,,,,,,,,,,right,0.2207885000098031,33.25826770000276,None,33.25826770000276,None,33.25826770000276,None,33.25826770000276,None,33.25826770000276,None,33.25826770000276,None,33.25826770000276,None,33.25826770000276,None,33.25826770000276,None,33.25826770000276,None,,,possum,2020_Jun_23_0832,Tymula Experiment,3.2.3,59.98890205940092,
20,20,0,38,38,0.156,24,0.5,-0.5,-0.5,-0.5,-0.5,0,34,34,77,,,,,,,,,,,,,,,,,,,,,,,,,,,,,,,,,,,,,,,,,,,,,,,,,left,0.08163109997985885,33.57009069999913,None,33.57009069999913,None,33.57009069999913,None,33.57009069999913,None,33.57009069999913,None,33.57009069999913,None,33.57009069999913,None,33.57009069999913,None,33.57009069999913,None,33.57009069999913,None,,,possum,2020_Jun_23_0832,Tymula Experiment,3.2.3,59.98890205940092,
-50,-50,0,50,50,0.0,0,-0.5,0.5,0.5,0.5,0.5,0,35,35,123,,,,,,,,,,,,,,,,,,,,,,,,,,,,,,,,,,,,,,,,,,,,,,,,,right,0.19308840000303462,33.748624700005166,None,33.748624700005166,None,33.748624700005166,None,33.748624700005166,None,33.748624700005166,None,33.748624700005166,None,33.748624700005166,None,33.748624700005166,None,33.748624700005166,None,33.748624700005166,None,,,possum,2020_Jun_23_0832,Tymula Experiment,3.2.3,59.98890205940092,
50,50,0,25,75,0.0,0,0.5,-0.5,-0.5,-0.5,-0.5,0,36,36,97,,,,,,,,,,,,,,,,,,,,,,,,,,,,,,,,,,,,,,,,,,,,,,,,,left,0.08168560001649894,34.02420740001253,None,34.02420740001253,None,34.02420740001253,None,34.02420740001253,None,34.02420740001253,None,34.02420740001253,None,34.02420740001253,None,34.02420740001253,None,34.02420740001253,None,34.02420740001253,None,,,possum,2020_Jun_23_0832,Tymula Experiment,3.2.3,59.98890205940092,
5,5,0,13,87,0.0,0,0.5,-0.5,-0.5,-0.5,-0.5,0,37,37,8,,,,,,,,,,,,,,,,,,,,,,,,,,,,,,,,,,,,,,,,,,,,,,,,,right,0.19276759997592308,34.16493719999562,None,34.16493719999562,None,34.16493719999562,None,34.16493719999562,None,34.16493719999562,None,34.16493719999562,None,34.16493719999562,None,34.16493719999562,None,34.16493719999562,None,34.16493719999562,None,,,possum,2020_Jun_23_0832,Tymula Experiment,3.2.3,59.98890205940092,
-125,-125,0,25,75,0.0,0,-0.5,0.5,0.5,0.5,0.5,0,38,38,153,,,,,,,,,,,,,,,,,,,,,,,,,,,,,,,,,,,,,,,,,,,,,,,,,left,0.10092749999603257,34.434774099994684,None,34.434774099994684,None,34.434774099994684,None,34.434774099994684,None,34.434774099994684,None,34.434774099994684,None,34.434774099994684,None,34.434774099994684,None,34.434774099994684,None,34.434774099994684,None,,,possum,2020_Jun_23_0832,Tymula Experiment,3.2.3,59.98890205940092,
50,50,0,38,62,0.0,0,-0.5,0.5,0.5,0.5,0.5,0,39,39,98,,,,,,,,,,,,,,,,,,,,,,,,,,,,,,,,,,,,,,,,,,,,,,,,,right,0.1842107999837026,34.599812000000384,None,34.599812000000384,None,34.599812000000384,None,34.599812000000384,None,34.599812000000384,None,34.599812000000384,None,34.599812000000384,None,34.599812000000384,None,34.599812000000384,None,34.599812000000384,None,,,possum,2020_Jun_23_0832,Tymula Experiment,3.2.3,59.98890205940092,
50,50,0,50,50,0.0,0,-0.5,0.5,0.5,0.5,0.5,0,40,40,107,,,,,,,,,,,,,,,,,,,,,,,,,,,,,,,,,,,,,,,,,,,,,,,,,left,0.12211180001031607,34.8743519000127,None,34.8743519000127,None,34.8743519000127,None,34.8743519000127,None,34.8743519000127,None,34.8743519000127,None,34.8743519000127,None,34.8743519000127,None,34.8743519000127,None,34.8743519000127,None,,,possum,2020_Jun_23_0832,Tymula Experiment,3.2.3,59.98890205940092,
125,125,0,13,87,0.0,0,-0.5,0.5,0.5,0.5,0.5,0,41,41,128,,,,,,,,,,,,,,,,,,,,,,,,,,,,,,,,,,,,,,,,,,,,,,,,,right,0.11418850001064129,35.101550999999745,None,35.101550999999745,None,35.101550999999745,None,35.101550999999745,None,35.101550999999745,None,35.101550999999745,None,35.101550999999745,None,35.101550999999745,None,35.101550999999745,None,35.101550999999745,None,,,possum,2020_Jun_23_0832,Tymula Experiment,3.2.3,59.98890205940092,
-50,-50,0,13,13,0.481,74,0.5,-0.5,-0.5,-0.5,-0.5,0,42,42,127,,,,,,,,,,,,,,,,,,,,,,,,,,,,,,,,,,,,,,,,,,,,,,,,,left,0.21716319999541156,35.28073490000679,None,35.28073490000679,None,35.28073490000679,None,35.28073490000679,None,35.28073490000679,None,35.28073490000679,None,35.28073490000679,None,35.28073490000679,None,35.28073490000679,None,35.28073490000679,None,,,possum,2020_Jun_23_0832,Tymula Experiment,3.2.3,59.98890205940092,
-125,-125,0,38,38,0.156,24,-0.5,0.5,0.5,0.5,0.5,0,43,43,149,,,,,,,,,,,,,,,,,,,,,,,,,,,,,,,,,,,,,,,,,,,,,,,,,right,0.13057110001682304,35.571240199991735,None,35.571240199991735,None,35.571240199991735,None,35.571240199991735,None,35.571240199991735,None,35.571240199991735,None,35.571240199991735,None,35.571240199991735,None,35.571240199991735,None,35.571240199991735,None,,,possum,2020_Jun_23_0832,Tymula Experiment,3.2.3,59.98890205940092,
-5,-5,0,38,38,0.156,24,-0.5,0.5,0.5,0.5,0.5,0,44,44,21,,,,,,,,,,,,,,,,,,,,,,,,,,,,,,,,,,,,,,,,,,,,,,,,,right,0.21497100000851788,35.765846900001634,None,35.765846900001634,None,35.765846900001634,None,35.765846900001634,None,35.765846900001634,None,35.765846900001634,None,35.765846900001634,None,35.765846900001634,None,35.765846900001634,None,35.765846900001634,None,,,possum,2020_Jun_23_0832,Tymula Experiment,3.2.3,59.98890205940092,
-8,-8,0,25,75,0.0,0,0.5,-0.5,-0.5,-0.5,-0.5,0,45,45,49,,,,,,,,,,,,,,,,,,,,,,,,,,,,,,,,,,,,,,,,,,,,,,,,,left,0.060396999993827194,36.08885040000314,None,36.08885040000314,None,36.08885040000314,None,36.08885040000314,None,36.08885040000314,None,36.08885040000314,None,36.08885040000314,None,36.08885040000314,None,36.08885040000314,None,36.08885040000314,None,,,possum,2020_Jun_23_0832,Tymula Experiment,3.2.3,59.98890205940092,
-5,-5,0,13,87,0.0,0,-0.5,0.5,0.5,0.5,0.5,0,46,46,16,,,,,,,,,,,,,,,,,,,,,,,,,,,,,,,,,,,,,,,,,,,,,,,,,right,0.0990616999915801,36.24461960000917,None,36.24461960000917,None,36.24461960000917,None,36.24461960000917,None,36.24461960000917,None,36.24461960000917,None,36.24461960000917,None,36.24461960000917,None,36.24461960000917,None,36.24461960000917,None,,,possum,2020_Jun_23_0832,Tymula Experiment,3.2.3,59.98890205940092,
20,20,0,13,13,0.481,74,-0.5,0.5,0.5,0.5,0.5,0,47,47,71,,,,,,,,,,,,,,,,,,,,,,,,,,,,,,,,,,,,,,,,,,,,,,,,,left,0.1425038000161294,36.424402500008,None,36.424402500008,None,36.424402500008,None,36.424402500008,None,36.424402500008,None,36.424402500008,None,36.424402500008,None,36.424402500008,None,36.424402500008,None,36.424402500008,None,,,possum,2020_Jun_23_0832,Tymula Experiment,3.2.3,59.98890205940092,
-50,-50,0,25,75,0.0,0,-0.5,0.5,0.5,0.5,0.5,0,48,48,121,,,,,,,,,,,,,,,,,,,,,,,,,,,,,,,,,,,,,,,,,,,,,,,,,right,0.11585959998774342,36.63673570001265,None,36.63673570001265,None,36.63673570001265,None,36.63673570001265,None,36.63673570001265,None,36.63673570001265,None,36.63673570001265,None,36.63673570001265,None,36.63673570001265,None,36.63673570001265,None,,,possum,2020_Jun_23_0832,Tymula Experiment,3.2.3,59.98890205940092,
50,50,0,50,50,0.0,0,0.5,-0.5,-0.5,-0.5,-0.5,0,49,49,99,,,,,,,,,,,,,,,,,,,,,,,,,,,,,,,,,,,,,,,,,,,,,,,,,left,0.21835820001433603,36.841600299987476,None,36.841600299987476,None,36.841600299987476,None,36.841600299987476,None,36.841600299987476,None,36.841600299987476,None,36.841600299987476,None,36.841600299987476,None,36.841600299987476,None,36.841600299987476,None,,,possum,2020_Jun_23_0832,Tymula Experiment,3.2.3,59.98890205940092,
-8,-8,0,25,75,0.0,0,-0.5,0.5,0.5,0.5,0.5,0,50,50,57,,,,,,,,,,,,,,,,,,,,,,,,,,,,,,,,,,,,,,,,,,,,,,,,,right,0.11334179999539629,37.17474439999205,None,37.17474439999205,None,37.17474439999205,None,37.17474439999205,None,37.17474439999205,None,37.17474439999205,None,37.17474439999205,None,37.17474439999205,None,37.17474439999205,None,37.17474439999205,None,,,possum,2020_Jun_23_0832,Tymula Experiment,3.2.3,59.98890205940092,
50,50,0,38,62,0.0,0,0.5,-0.5,-0.5,-0.5,-0.5,0,51,51,106,,,,,,,,,,,,,,,,,,,,,,,,,,,,,,,,,,,,,,,,,,,,,,,,,left,0.024196600017603487,37.344487099995604,None,37.344487099995604,None,37.344487099995604,None,37.344487099995604,None,37.344487099995604,None,37.344487099995604,None,37.344487099995604,None,37.344487099995604,None,37.344487099995604,None,37.344487099995604,None,,,possum,2020_Jun_23_0832,Tymula Experiment,3.2.3,59.98890205940092,
-5,-5,0,38,62,0.0,0,-0.5,0.5,0.5,0.5,0.5,0,52,52,18,,,,,,,,,,,,,,,,,,,,,,,,,,,,,,,,,,,,,,,,,,,,,,,,,right,0.1259394000226166,37.422609100001864,None,37.422609100001864,None,37.422609100001864,None,37.422609100001864,None,37.422609100001864,None,37.422609100001864,None,37.422609100001864,None,37.422609100001864,None,37.422609100001864,None,37.422609100001864,None,,,possum,2020_Jun_23_0832,Tymula Experiment,3.2.3,59.98890205940092,
-20,-20,0,38,62,0.0,0,-0.5,0.5,0.5,0.5,0.5,0,53,53,82,,,,,,,,,,,,,,,,,,,,,,,,,,,,,,,,,,,,,,,,,,,,,,,,,left,0.1478036000044085,37.66101320000598,None,37.66101320000598,None,37.66101320000598,None,37.66101320000598,None,37.66101320000598,None,37.66101320000598,None,37.66101320000598,None,37.66101320000598,None,37.66101320000598,None,37.66101320000598,None,,,possum,2020_Jun_23_0832,Tymula Experiment,3.2.3,59.98890205940092,
-8,-8,0,13,87,0.0,0,-0.5,0.5,0.5,0.5,0.5,0,54,54,48,,,,,,,,,,,,,,,,,,,,,,,,,,,,,,,,,,,,,,,,,,,,,,,,,right,0.10758260000147857,37.891824699996505,None,37.891824699996505,None,37.891824699996505,None,37.891824699996505,None,37.891824699996505,None,37.891824699996505,None,37.891824699996505,None,37.891824699996505,None,37.891824699996505,None,37.891824699996505,None,,,possum,2020_Jun_23_0832,Tymula Experiment,3.2.3,59.98890205940092,
8,8,0,38,62,0.0,0,0.5,-0.5,-0.5,-0.5,-0.5,0,55,55,42,,,,,,,,,,,,,,,,,,,,,,,,,,,,,,,,,,,,,,,,,,,,,,,,,left,0.1643708999908995,38.044314500002656,None,38.044314500002656,None,38.044314500002656,None,38.044314500002656,None,38.044314500002656,None,38.044314500002656,None,38.044314500002656,None,38.044314500002656,None,38.044314500002656,None,38.044314500002656,None,,,possum,2020_Jun_23_0832,Tymula Experiment,3.2.3,59.98890205940092,
125,125,0,13,87,0.0,0,0.5,-0.5,-0.5,-0.5,-0.5,0,56,56,136,,,,,,,,,,,,,,,,,,,,,,,,,,,,,,,,,,,,,,,,,,,,,,,,,left,0.16372499999124557,38.27259879998746,None,38.27259879998746,None,38.27259879998746,None,38.27259879998746,None,38.27259879998746,None,38.27259879998746,None,38.27259879998746,None,38.27259879998746,None,38.27259879998746,None,38.27259879998746,None,,,possum,2020_Jun_23_0832,Tymula Experiment,3.2.3,59.98890205940092,
125,125,0,25,25,0.325,50,-0.5,0.5,0.5,0.5,0.5,0,57,57,142,,,,,,,,,,,,,,,,,,,,,,,,,,,,,,,,,,,,,,,,,,,,,,,,,left,0.1752983999904245,38.48749279999174,None,38.48749279999174,None,38.48749279999174,None,38.48749279999174,None,38.48749279999174,None,38.48749279999174,None,38.48749279999174,None,38.48749279999174,None,38.48749279999174,None,38.48749279999174,None,,,possum,2020_Jun_23_0832,Tymula Experiment,3.2.3,59.98890205940092,
-50,-50,0,75,25,0.0,0,-0.5,0.5,0.5,0.5,0.5,0,58,58,116,,,,,,,,,,,,,,,,,,,,,,,,,,,,,,,,,,,,,,,,,,,,,,,,,right,0.09315490000881255,38.72645710001234,None,38.72645710001234,None,38.72645710001234,None,38.72645710001234,None,38.72645710001234,None,38.72645710001234,None,38.72645710001234,None,38.72645710001234,None,38.72645710001234,None,38.72645710001234,None,,,possum,2020_Jun_23_0832,Tymula Experiment,3.2.3,59.98890205940092,
20,20,0,50,50,0.0,0,0.5,-0.5,-0.5,-0.5,-0.5,0,59,59,67,,,,,,,,,,,,,,,,,,,,,,,,,,,,,,,,,,,,,,,,,,,,,,,,,left,0.16764080000575632,38.875476999994135,None,38.875476999994135,None,38.875476999994135,None,38.875476999994135,None,38.875476999994135,None,38.875476999994135,None,38.875476999994135,None,38.875476999994135,None,38.875476999994135,None,38.875476999994135,None,,,possum,2020_Jun_23_0832,Tymula Experiment,3.2.3,59.98890205940092,
125,125,0,25,25,0.325,50,0.5,-0.5,-0.5,-0.5,-0.5,0,60,60,134,,,,,,,,,,,,,,,,,,,,,,,,,,,,,,,,,,,,,,,,,,,,,,,,,right,0.11115919999429025,39.10344320000149,None,39.10344320000149,None,39.10344320000149,None,39.10344320000149,None,39.10344320000149,None,39.10344320000149,None,39.10344320000149,None,39.10344320000149,None,39.10344320000149,None,39.10344320000149,None,,,possum,2020_Jun_23_0832,Tymula Experiment,3.2.3,59.98890205940092,
-50,-50,0,13,87,0.0,0,0.5,-0.5,-0.5,-0.5,-0.5,0,61,61,120,,,,,,,,,,,,,,,,,,,,,,,,,,,,,,,,,,,,,,,,,,,,,,,,,right,0.1610213000094518,39.28004099999089,None,39.28004099999089,None,39.28004099999089,None,39.28004099999089,None,39.28004099999089,None,39.28004099999089,None,39.28004099999089,None,39.28004099999089,None,39.28004099999089,None,39.28004099999089,None,,,possum,2020_Jun_23_0832,Tymula Experiment,3.2.3,59.98890205940092,
8,8,0,50,50,0.0,0,-0.5,0.5,0.5,0.5,0.5,0,62,62,43,,,,,,,,,,,,,,,,,,,,,,,,,,,,,,,,,,,,,,,,,,,,,,,,,left,0.12838639999972656,39.516846999991685,None,39.516846999991685,None,39.516846999991685,None,39.516846999991685,None,39.516846999991685,None,39.516846999991685,None,39.516846999991685,None,39.516846999991685,None,39.516846999991685,None,39.516846999991685,None,,,possum,2020_Jun_23_0832,Tymula Experiment,3.2.3,59.98890205940092,
-20,-20,0,25,75,0.0,0,-0.5,0.5,0.5,0.5,0.5,0,63,63,89,,,,,,,,,,,,,,,,,,,,,,,,,,,,,,,,,,,,,,,,,,,,,,,,,right,0.09438550000777468,39.74216900000465,None,39.74216900000465,None,39.74216900000465,None,39.74216900000465,None,39.74216900000465,None,39.74216900000465,None,39.74216900000465,None,39.74216900000465,None,39.74216900000465,None,39.74216900000465,None,,,possum,2020_Jun_23_0832,Tymula Experiment,3.2.3,59.98890205940092,
5,5,0,38,38,0.156,24,-0.5,0.5,0.5,0.5,0.5,0,64,64,5,,,,,,,,,,,,,,,,,,,,,,,,,,,,,,,,,,,,,,,,,,,,,,,,,left,0.29104179999558255,39.88717520001228,None,39.88717520001228,None,39.88717520001228,None,39.88717520001228,None,39.88717520001228,None,39.88717520001228,None,39.88717520001228,None,39.88717520001228,None,39.88717520001228,None,39.88717520001228,None,,,possum,2020_Jun_23_0832,Tymula Experiment,3.2.3,59.98890205940092,
-50,-50,0,38,38,0.156,24,0.5,-0.5,-0.5,-0.5,-0.5,0,65,65,125,,,,,,,,,,,,,,,,,,,,,,,,,,,,,,,,,,,,,,,,,,,,,,,,,right,0.030013599985977635,40.2801279000123,None,40.2801279000123,None,40.2801279000123,None,40.2801279000123,None,40.2801279000123,None,40.2801279000123,None,40.2801279000123,None,40.2801279000123,None,40.2801279000123,None,40.2801279000123,None,,,possum,2020_Jun_23_0832,Tymula Experiment,3.2.3,59.98890205940092,
50,50,0,25,75,0.0,0,-0.5,0.5,0.5,0.5,0.5,0,66,66,105,,,,,,,,,,,,,,,,,,,,,,,,,,,,,,,,,,,,,,,,,,,,,,,,,right,0.1535786000022199,40.4147294999857,None,40.4147294999857,None,40.4147294999857,None,40.4147294999857,None,40.4147294999857,None,40.4147294999857,None,40.4147294999857,None,40.4147294999857,None,40.4147294999857,None,40.4147294999857,None,,,possum,2020_Jun_23_0832,Tymula Experiment,3.2.3,59.98890205940092,
125,125,0,38,62,0.0,0,-0.5,0.5,0.5,0.5,0.5,0,67,67,130,,,,,,,,,,,,,,,,,,,,,,,,,,,,,,,,,,,,,,,,,,,,,,,,,left,0.14417569999932311,40.652333700010786,None,40.652333700010786,None,40.652333700010786,None,40.652333700010786,None,40.652333700010786,None,40.652333700010786,None,40.652333700010786,None,40.652333700010786,None,40.652333700010786,None,40.652333700010786,None,,,possum,2020_Jun_23_0832,Tymula Experiment,3.2.3,59.98890205940092,
-20,-20,0,75,25,0.0,0,-0.5,0.5,0.5,0.5,0.5,0,68,68,92,,,,,,,,,,,,,,,,,,,,,,,,,,,,,,,,,,,,,,,,,,,,,,,,,right,0.053261299995938316,40.89957000000868,None,40.89957000000868,None,40.89957000000868,None,40.89957000000868,None,40.89957000000868,None,40.89957000000868,None,40.89957000000868,None,40.89957000000868,None,40.89957000000868,None,40.89957000000868,None,,,possum,2020_Jun_23_0832,Tymula Experiment,3.2.3,59.98890205940092,
5,5,0,25,25,0.325,50,0.5,-0.5,-0.5,-0.5,-0.5,0,69,69,6,,,,,,,,,,,,,,,,,,,,,,,,,,,,,,,,,,,,,,,,,,,,,,,,,right,0.32178440000279807,41.00632169999881,None,41.00632169999881,None,41.00632169999881,None,41.00632169999881,None,41.00632169999881,None,41.00632169999881,None,41.00632169999881,None,41.00632169999881,None,41.00632169999881,None,41.00632169999881,None,,,possum,2020_Jun_23_0832,Tymula Experiment,3.2.3,59.98890205940092,
50,50,0,25,25,0.325,50,0.5,-0.5,-0.5,-0.5,-0.5,0,70,70,102,,,,,,,,,,,,,,,,,,,,,,,,,,,,,,,,,,,,,,,,,,,,,,,,,left,0.1367026999942027,41.39319480000995,None,41.39319480000995,None,41.39319480000995,None,41.39319480000995,None,41.39319480000995,None,41.39319480000995,None,41.39319480000995,None,41.39319480000995,None,41.39319480000995,None,41.39319480000995,None,,,possum,2020_Jun_23_0832,Tymula Experiment,3.2.3,59.98890205940092,
-20,-20,0,13,13,0.481,74,-0.5,0.5,0.5,0.5,0.5,0,71,71,87,,,,,,,,,,,,,,,,,,,,,,,,,,,,,,,,,,,,,,,,,,,,,,,,,left,0.117355199996382,41.64763990000938,None,41.64763990000938,None,41.64763990000938,None,41.64763990000938,None,41.64763990000938,None,41.64763990000938,None,41.64763990000938,None,41.64763990000938,None,41.64763990000938,None,41.64763990000938,None,,,possum,2020_Jun_23_0832,Tymula Experiment,3.2.3,59.98890205940092,
20,20,0,75,25,0.0,0,-0.5,0.5,0.5,0.5,0.5,0,72,72,68,,,,,,,,,,,,,,,,,,,,,,,,,,,,,,,,,,,,,,,,,,,,,,,,,right,0.05613360001007095,41.854474199994,None,41.854474199994,None,41.854474199994,None,41.854474199994,None,41.854474199994,None,41.854474199994,None,41.854474199994,None,41.854474199994,None,41.854474199994,None,41.854474199994,None,,,possum,2020_Jun_23_0832,Tymula Experiment,3.2.3,59.98890205940092,
20,20,0,13,87,0.0,0,0.5,-0.5,-0.5,-0.5,-0.5,0,73,73,72,,,,,,,,,,,,,,,,,,,,,,,,,,,,,,,,,,,,,,,,,,,,,,,,,left,0.11651409999467432,42.00722100000712,None,42.00722100000712,None,42.00722100000712,None,42.00722100000712,None,42.00722100000712,None,42.00722100000712,None,42.00722100000712,None,42.00722100000712,None,42.00722100000712,None,42.00722100000712,None,,,possum,2020_Jun_23_0832,Tymula Experiment,3.2.3,59.98890205940092,
5,5,0,38,62,0.0,0,-0.5,0.5,0.5,0.5,0.5,0,74,74,2,,,,,,,,,,,,,,,,,,,,,,,,,,,,,,,,,,,,,,,,,,,,,,,,,right,0.15798229997744784,42.16863440000452,None,42.16863440000452,None,42.16863440000452,None,42.16863440000452,None,42.16863440000452,None,42.16863440000452,None,42.16863440000452,None,42.16863440000452,None,42.16863440000452,None,42.16863440000452,None,,,possum,2020_Jun_23_0832,Tymula Experiment,3.2.3,59.98890205940092,
8,8,0,38,62,0.0,0,-0.5,0.5,0.5,0.5,0.5,0,75,75,34,,,,,,,,,,,,,,,,,,,,,,,,,,,,,,,,,,,,,,,,,,,,,,,,,right,0.13732270000036806,42.414022000011755,None,42.414022000011755,None,42.414022000011755,None,42.414022000011755,None,42.414022000011755,None,42.414022000011755,None,42.414022000011755,None,42.414022000011755,None,42.414022000011755,None,42.414022000011755,None,,,possum,2020_Jun_23_0832,Tymula Experiment,3.2.3,59.98890205940092,
20,20,0,38,62,0.0,0,-0.5,0.5,0.5,0.5,0.5,0,76,76,66,,,,,,,,,,,,,,,,,,,,,,,,,,,,,,,,,,,,,,,,,,,,,,,,,left,0.15490710001904517,42.629713800008176,None,42.629713800008176,None,42.629713800008176,None,42.629713800008176,None,42.629713800008176,None,42.629713800008176,None,42.629713800008176,None,42.629713800008176,None,42.629713800008176,None,42.629713800008176,None,,,possum,2020_Jun_23_0832,Tymula Experiment,3.2.3,59.98890205940092,
-125,-125,0,13,13,0.481,74,-0.5,0.5,0.5,0.5,0.5,0,77,77,151,,,,,,,,,,,,,,,,,,,,,,,,,,,,,,,,,,,,,,,,,,,,,,,,,right,0.08226679998915642,42.88403899999685,None,42.88403899999685,None,42.88403899999685,None,42.88403899999685,None,42.88403899999685,None,42.88403899999685,None,42.88403899999685,None,42.88403899999685,None,42.88403899999685,None,42.88403899999685,None,,,possum,2020_Jun_23_0832,Tymula Experiment,3.2.3,59.98890205940092,
50,50,0,13,87,0.0,0,-0.5,0.5,0.5,0.5,0.5,0,78,78,96,,,,,,,,,,,,,,,,,,,,,,,,,,,,,,,,,,,,,,,,,,,,,,,,,left,0.1718354000186082,43.06003560000681,None,43.06003560000681,None,43.06003560000681,None,43.06003560000681,None,43.06003560000681,None,43.06003560000681,None,43.06003560000681,None,43.06003560000681,None,43.06003560000681,None,43.06003560000681,None,,,possum,2020_Jun_23_0832,Tymula Experiment,3.2.3,59.98890205940092,
8,8,0,38,38,0.156,24,0.5,-0.5,-0.5,-0.5,-0.5,0,79,79,45,,,,,,,,,,,,,,,,,,,,,,,,,,,,,,,,,,,,,,,,,,,,,,,,,right,0.10423840000294149,43.33674540001084,None,43.33674540001084,None,43.33674540001084,None,43.33674540001084,None,43.33674540001084,None,43.33674540001084,None,43.33674540001084,None,43.33674540001084,None,43.33674540001084,None,43.33674540001084,None,,,possum,2020_Jun_23_0832,Tymula Experiment,3.2.3,59.98890205940092,
8,8,0,13,13,0.481,74,0.5,-0.5,-0.5,-0.5,-0.5,0,80,80,47,,,,,,,,,,,,,,,,,,,,,,,,,,,,,,,,,,,,,,,,,,,,,,,,,left,0.21014940002351068,43.4900900000066,None,43.4900900000066,None,43.4900900000066,None,43.4900900000066,None,43.4900900000066,None,43.4900900000066,None,43.4900900000066,None,43.4900900000066,None,43.4900900000066,None,43.4900900000066,None,,,possum,2020_Jun_23_0832,Tymula Experiment,3.2.3,59.98890205940092,
125,125,0,25,75,0.0,0,-0.5,0.5,0.5,0.5,0.5,0,81,81,137,,,,,,,,,,,,,,,,,,,,,,,,,,,,,,,,,,,,,,,,,,,,,,,,,left,0.14667950000148267,43.787481800012756,None,43.787481800012756,None,43.787481800012756,None,43.787481800012756,None,43.787481800012756,None,43.787481800012756,None,43.787481800012756,None,43.787481800012756,None,43.787481800012756,None,43.787481800012756,None,,,possum,2020_Jun_23_0832,Tymula Experiment,3.2.3,59.98890205940092,
-8,-8,0,13,13,0.481,74,-0.5,0.5,0.5,0.5,0.5,0,82,82,55,,,,,,,,,,,,,,,,,,,,,,,,,,,,,,,,,,,,,,,,,,,,,,,,,left,0.34589699999196455,44.02183069998864,None,44.02183069998864,None,44.02183069998864,None,44.02183069998864,None,44.02183069998864,None,44.02183069998864,None,44.02183069998864,None,44.02183069998864,None,44.02183069998864,None,44.02183069998864,None,,,possum,2020_Jun_23_0832,Tymula Experiment,3.2.3,59.98890205940092,
5,5,0,50,50,0.0,0,-0.5,0.5,0.5,0.5,0.5,0,83,83,11,,,,,,,,,,,,,,,,,,,,,,,,,,,,,,,,,,,,,,,,,,,,,,,,,right,0.41745889998856,44.461948999989545,None,44.461948999989545,None,44.461948999989545,None,44.461948999989545,None,44.461948999989545,None,44.461948999989545,None,44.461948999989545,None,44.461948999989545,None,44.461948999989545,None,44.461948999989545,None,,,possum,2020_Jun_23_0832,Tymula Experiment,3.2.3,59.98890205940092,
-125,-125,0,13,13,0.481,74,0.5,-0.5,-0.5,-0.5,-0.5,0,84,84,159,,,,,,,,,,,,,,,,,,,,,,,,,,,,,,,,,,,,,,,,,,,,,,,,,left,0.10401609999826178,44.978790299996035,None,44.978790299996035,None,44.978790299996035,None,44.978790299996035,None,44.978790299996035,None,44.978790299996035,None,44.978790299996035,None,44.978790299996035,None,44.978790299996035,None,44.978790299996035,None,,,possum,2020_Jun_23_0832,Tymula Experiment,3.2.3,59.98890205940092,
-20,-20,0,38,38,0.156,24,-0.5,0.5,0.5,0.5,0.5,0,85,85,85,,,,,,,,,,,,,,,,,,,,,,,,,,,,,,,,,,,,,,,,,,,,,,,,,right,0.12448810000205413,45.1744681999844,None,45.1744681999844,None,45.1744681999844,None,45.1744681999844,None,45.1744681999844,None,45.1744681999844,None,45.1744681999844,None,45.1744681999844,None,45.1744681999844,None,45.1744681999844,None,,,possum,2020_Jun_23_0832,Tymula Experiment,3.2.3,59.98890205940092,
-8,-8,0,38,38,0.156,24,0.5,-0.5,-0.5,-0.5,-0.5,0,86,86,61,,,,,,,,,,,,,,,,,,,,,,,,,,,,,,,,,,,,,,,,,,,,,,,,,left,0.18382500001462176,45.35050309999497,None,45.35050309999497,None,45.35050309999497,None,45.35050309999497,None,45.35050309999497,None,45.35050309999497,None,45.35050309999497,None,45.35050309999497,None,45.35050309999497,None,45.35050309999497,None,,,possum,2020_Jun_23_0832,Tymula Experiment,3.2.3,59.98890205940092,
-50,-50,0,38,62,0.0,0,-0.5,0.5,0.5,0.5,0.5,0,87,87,114,,,,,,,,,,,,,,,,,,,,,,,,,,,,,,,,,,,,,,,,,,,,,,,,,right,0.1596381000126712,45.57828600000357,None,45.57828600000357,None,45.57828600000357,None,45.57828600000357,None,45.57828600000357,None,45.57828600000357,None,45.57828600000357,None,45.57828600000357,None,45.57828600000357,None,45.57828600000357,None,,,possum,2020_Jun_23_0832,Tymula Experiment,3.2.3,59.98890205940092,
-20,-20,0,38,62,0.0,0,0.5,-0.5,-0.5,-0.5,-0.5,0,88,88,90,,,,,,,,,,,,,,,,,,,,,,,,,,,,,,,,,,,,,,,,,,,,,,,,,left,0.10503909998806193,45.822387499996694,None,45.822387499996694,None,45.822387499996694,None,45.822387499996694,None,45.822387499996694,None,45.822387499996694,None,45.822387499996694,None,45.822387499996694,None,45.822387499996694,None,45.822387499996694,None,,,possum,2020_Jun_23_0832,Tymula Experiment,3.2.3,59.98890205940092,
-20,-20,0,50,50,0.0,0,0.5,-0.5,-0.5,-0.5,-0.5,0,89,89,83,,,,,,,,,,,,,,,,,,,,,,,,,,,,,,,,,,,,,,,,,,,,,,,,,right,0.10584899998502806,46.02911020000465,None,46.02911020000465,None,46.02911020000465,None,46.02911020000465,None,46.02911020000465,None,46.02911020000465,None,46.02911020000465,None,46.02911020000465,None,46.02911020000465,None,46.02911020000465,None,,,possum,2020_Jun_23_0832,Tymula Experiment,3.2.3,59.98890205940092,
5,5,0,13,13,0.481,74,-0.5,0.5,0.5,0.5,0.5,0,90,90,7,,,,,,,,,,,,,,,,,,,,,,,,,,,,,,,,,,,,,,,,,,,,,,,,,left,0.15324910002527758,46.23206660000142,None,46.23206660000142,None,46.23206660000142,None,46.23206660000142,None,46.23206660000142,None,46.23206660000142,None,46.23206660000142,None,46.23206660000142,None,46.23206660000142,None,46.23206660000142,None,,,possum,2020_Jun_23_0832,Tymula Experiment,3.2.3,59.98890205940092,
5,5,0,25,25,0.325,50,-0.5,0.5,0.5,0.5,0.5,0,91,91,14,,,,,,,,,,,,,,,,,,,,,,,,,,,,,,,,,,,,,,,,,,,,,,,,,right,0.09192400000756606,46.47186660001171,None,46.47186660001171,None,46.47186660001171,None,46.47186660001171,None,46.47186660001171,None,46.47186660001171,None,46.47186660001171,None,46.47186660001171,None,46.47186660001171,None,46.47186660001171,None,,,possum,2020_Jun_23_0832,Tymula Experiment,3.2.3,59.98890205940092,
8,8,0,13,13,0.481,74,-0.5,0.5,0.5,0.5,0.5,0,92,92,39,,,,,,,,,,,,,,,,,,,,,,,,,,,,,,,,,,,,,,,,,,,,,,,,,left,0.13146400000550784,46.6687721000053,None,46.6687721000053,None,46.6687721000053,None,46.6687721000053,None,46.6687721000053,None,46.6687721000053,None,46.6687721000053,None,46.6687721000053,None,46.6687721000053,None,46.6687721000053,None,,,possum,2020_Jun_23_0832,Tymula Experiment,3.2.3,59.98890205940092,
50,50,0,25,25,0.325,50,-0.5,0.5,0.5,0.5,0.5,0,93,93,110,,,,,,,,,,,,,,,,,,,,,,,,,,,,,,,,,,,,,,,,,,,,,,,,,right,0.07118679999257438,46.894010699994396,None,46.894010699994396,None,46.894010699994396,None,46.894010699994396,None,46.894010699994396,None,46.894010699994396,None,46.894010699994396,None,46.894010699994396,None,46.894010699994396,None,46.894010699994396,None,,,possum,2020_Jun_23_0832,Tymula Experiment,3.2.3,59.98890205940092,
125,125,0,38,62,0.0,0,0.5,-0.5,-0.5,-0.5,-0.5,0,94,94,138,,,,,,,,,,,,,,,,,,,,,,,,,,,,,,,,,,,,,,,,,,,,,,,,,left,0.1348217999911867,47.05311360000633,None,47.05311360000633,None,47.05311360000633,None,47.05311360000633,None,47.05311360000633,None,47.05311360000633,None,47.05311360000633,None,47.05311360000633,None,47.05311360000633,None,47.05311360000633,None,,,possum,2020_Jun_23_0832,Tymula Experiment,3.2.3,59.98890205940092,
20,20,0,25,25,0.325,50,-0.5,0.5,0.5,0.5,0.5,0,95,95,78,,,,,,,,,,,,,,,,,,,,,,,,,,,,,,,,,,,,,,,,,,,,,,,,,left,0.15363740001339465,47.2417116999859,None,47.2417116999859,None,47.2417116999859,None,47.2417116999859,None,47.2417116999859,None,47.2417116999859,None,47.2417116999859,None,47.2417116999859,None,47.2417116999859,None,47.2417116999859,None,,,possum,2020_Jun_23_0832,Tymula Experiment,3.2.3,59.98890205940092,
-5,-5,0,50,50,0.0,0,0.5,-0.5,-0.5,-0.5,-0.5,0,96,96,19,,,,,,,,,,,,,,,,,,,,,,,,,,,,,,,,,,,,,,,,,,,,,,,,,right,0.07702879997668788,47.50388619999285,None,47.50388619999285,None,47.50388619999285,None,47.50388619999285,None,47.50388619999285,None,47.50388619999285,None,47.50388619999285,None,47.50388619999285,None,47.50388619999285,None,47.50388619999285,None,,,possum,2020_Jun_23_0832,Tymula Experiment,3.2.3,59.98890205940092,
20,20,0,25,25,0.325,50,0.5,-0.5,-0.5,-0.5,-0.5,0,97,97,70,,,,,,,,,,,,,,,,,,,,,,,,,,,,,,,,,,,,,,,,,,,,,,,,,left,0.13639870000770316,47.66946020000614,None,47.66946020000614,None,47.66946020000614,None,47.66946020000614,None,47.66946020000614,None,47.66946020000614,None,47.66946020000614,None,47.66946020000614,None,47.66946020000614,None,47.66946020000614,None,,,possum,2020_Jun_23_0832,Tymula Experiment,3.2.3,59.98890205940092,
-5,-5,0,75,25,0.0,0,-0.5,0.5,0.5,0.5,0.5,0,98,98,20,,,,,,,,,,,,,,,,,,,,,,,,,,,,,,,,,,,,,,,,,,,,,,,,,right,0.10051570000359789,47.89592489998904,None,47.89592489998904,None,47.89592489998904,None,47.89592489998904,None,47.89592489998904,None,47.89592489998904,None,47.89592489998904,None,47.89592489998904,None,47.89592489998904,None,47.89592489998904,None,,,possum,2020_Jun_23_0832,Tymula Experiment,3.2.3,59.98890205940092,
-5,-5,0,13,13,0.481,74,0.5,-0.5,-0.5,-0.5,-0.5,0,99,99,31,,,,,,,,,,,,,,,,,,,,,,,,,,,,,,,,,,,,,,,,,,,,,,,,,left,0.13576919998740777,48.097296499996446,None,48.097296499996446,None,48.097296499996446,None,48.097296499996446,None,48.097296499996446,None,48.097296499996446,None,48.097296499996446,None,48.097296499996446,None,48.097296499996446,None,48.097296499996446,None,,,possum,2020_Jun_23_0832,Tymula Experiment,3.2.3,59.98890205940092,
-125,-125,0,75,25,0.0,0,-0.5,0.5,0.5,0.5,0.5,0,100,100,148,,,,,,,,,,,,,,,,,,,,,,,,,,,,,,,,,,,,,,,,,,,,,,,,,left,0.1430306999827735,48.32997900000191,None,48.32997900000191,None,48.32997900000191,None,48.32997900000191,None,48.32997900000191,None,48.32997900000191,None,48.32997900000191,None,48.32997900000191,None,48.32997900000191,None,48.32997900000191,None,,,possum,2020_Jun_23_0832,Tymula Experiment,3.2.3,59.98890205940092,
-8,-8,0,75,25,0.0,0,-0.5,0.5,0.5,0.5,0.5,0,101,101,60,,,,,,,,,,,,,,,,,,,,,,,,,,,,,,,,,,,,,,,,,,,,,,,,,left,0.17404839998926036,48.5517519999994,None,48.5517519999994,None,48.5517519999994,None,48.5517519999994,None,48.5517519999994,None,48.5517519999994,None,48.5517519999994,None,48.5517519999994,None,48.5517519999994,None,48.5517519999994,None,,,possum,2020_Jun_23_0832,Tymula Experiment,3.2.3,59.98890205940092,
-50,-50,0,38,38,0.156,24,-0.5,0.5,0.5,0.5,0.5,0,102,102,117,,,,,,,,,,,,,,,,,,,,,,,,,,,,,,,,,,,,,,,,,,,,,,,,,right,0.05704479999258183,48.823818000004394,None,48.823818000004394,None,48.823818000004394,None,48.823818000004394,None,48.823818000004394,None,48.823818000004394,None,48.823818000004394,None,48.823818000004394,None,48.823818000004394,None,48.823818000004394,None,,,possum,2020_Jun_23_0832,Tymula Experiment,3.2.3,59.98890205940092,
8,8,0,25,75,0.0,0,0.5,-0.5,-0.5,-0.5,-0.5,0,103,103,33,,,,,,,,,,,,,,,,,,,,,,,,,,,,,,,,,,,,,,,,,,,,,,,,,right,0.1286172000109218,48.96245779999299,None,48.96245779999299,None,48.96245779999299,None,48.96245779999299,None,48.96245779999299,None,48.96245779999299,None,48.96245779999299,None,48.96245779999299,None,48.96245779999299,None,48.96245779999299,None,,,possum,2020_Jun_23_0832,Tymula Experiment,3.2.3,59.98890205940092,
5,5,0,75,25,0.0,0,-0.5,0.5,0.5,0.5,0.5,0,104,104,4,,,,,,,,,,,,,,,,,,,,,,,,,,,,,,,,,,,,,,,,,,,,,,,,,right,0.31262889999197796,49.1718097999983,None,49.1718097999983,None,49.1718097999983,None,49.1718097999983,None,49.1718097999983,None,49.1718097999983,None,49.1718097999983,None,49.1718097999983,None,49.1718097999983,None,49.1718097999983,None,,,possum,2020_Jun_23_0832,Tymula Experiment,3.2.3,59.98890205940092,
20,20,0,38,38,0.156,24,-0.5,0.5,0.5,0.5,0.5,0,105,105,69,,,,,,,,,,,,,,,,,,,,,,,,,,,,,,,,,,,,,,,,,,,,,,,,,left,0.12986129999626428,49.571498100005556,None,49.571498100005556,None,49.571498100005556,None,49.571498100005556,None,49.571498100005556,None,49.571498100005556,None,49.571498100005556,None,49.571498100005556,None,49.571498100005556,None,49.571498100005556,None,,,possum,2020_Jun_23_0832,Tymula Experiment,3.2.3,59.98890205940092,
5,5,0,25,75,0.0,0,-0.5,0.5,0.5,0.5,0.5,0,106,106,9,,,,,,,,,,,,,,,,,,,,,,,,,,,,,,,,,,,,,,,,,,,,,,,,,right,0.31734330000472255,49.7851767000102,None,49.7851767000102,None,49.7851767000102,None,49.7851767000102,None,49.7851767000102,None,49.7851767000102,None,49.7851767000102,None,49.7851767000102,None,49.7851767000102,None,49.7851767000102,None,,,possum,2020_Jun_23_0832,Tymula Experiment,3.2.3,59.98890205940092,
-20,-20,0,25,25,0.325,50,-0.5,0.5,0.5,0.5,0.5,0,107,107,94,,,,,,,,,,,,,,,,,,,,,,,,,,,,,,,,,,,,,,,,,,,,,,,,,left,0.07125459998496808,50.200456899998244,None,50.200456899998244,None,50.200456899998244,None,50.200456899998244,None,50.200456899998244,None,50.200456899998244,None,50.200456899998244,None,50.200456899998244,None,50.200456899998244,None,50.200456899998244,None,,,possum,2020_Jun_23_0832,Tymula Experiment,3.2.3,59.98890205940092,
-20,-20,0,75,25,0.0,0,-0.5,0.5,0.5,0.5,0.5,0,108,108,84,,,,,,,,,,,,,,,,,,,,,,,,,,,,,,,,,,,,,,,,,,,,,,,,,left,0.1555225999909453,50.32496019999962,None,50.32496019999962,None,50.32496019999962,None,50.32496019999962,None,50.32496019999962,None,50.32496019999962,None,50.32496019999962,None,50.32496019999962,None,50.32496019999962,None,50.32496019999962,None,,,possum,2020_Jun_23_0832,Tymula Experiment,3.2.3,59.98890205940092,
-125,-125,0,38,62,0.0,0,-0.5,0.5,0.5,0.5,0.5,0,109,109,146,,,,,,,,,,,,,,,,,,,,,,,,,,,,,,,,,,,,,,,,,,,,,,,,,right,0.058176099992124364,50.573807899985695,None,50.573807899985695,None,50.573807899985695,None,50.573807899985695,None,50.573807899985695,None,50.573807899985695,None,50.573807899985695,None,50.573807899985695,None,50.573807899985695,None,50.573807899985695,None,,,possum,2020_Jun_23_0832,Tymula Experiment,3.2.3,59.98890205940092,
50,50,0,75,25,0.0,0,-0.5,0.5,0.5,0.5,0.5,0,110,110,100,,,,,,,,,,,,,,,,,,,,,,,,,,,,,,,,,,,,,,,,,,,,,,,,,right,0.12118539999937639,50.728081500012195,None,50.728081500012195,None,50.728081500012195,None,50.728081500012195,None,50.728081500012195,None,50.728081500012195,None,50.728081500012195,None,50.728081500012195,None,50.728081500012195,None,50.728081500012195,None,,,possum,2020_Jun_23_0832,Tymula Experiment,3.2.3,59.98890205940092,
125,125,0,75,25,0.0,0,-0.5,0.5,0.5,0.5,0.5,0,111,111,140,,,,,,,,,,,,,,,,,,,,,,,,,,,,,,,,,,,,,,,,,,,,,,,,,left,0.15547820000210777,50.91179640000337,None,50.91179640000337,None,50.91179640000337,None,50.91179640000337,None,50.91179640000337,None,50.91179640000337,None,50.91179640000337,None,50.91179640000337,None,50.91179640000337,None,50.91179640000337,None,,,possum,2020_Jun_23_0832,Tymula Experiment,3.2.3,59.98890205940092,
20,20,0,25,75,0.0,0,-0.5,0.5,0.5,0.5,0.5,0,112,112,73,,,,,,,,,,,,,,,,,,,,,,,,,,,,,,,,,,,,,,,,,,,,,,,,,left,0.09253960000933148,51.168371799984016,None,51.168371799984016,None,51.168371799984016,None,51.168371799984016,None,51.168371799984016,None,51.168371799984016,None,51.168371799984016,None,51.168371799984016,None,51.168371799984016,None,51.168371799984016,None,,,possum,2020_Jun_23_0832,Tymula Experiment,3.2.3,59.98890205940092,
-20,-20,0,38,38,0.156,24,0.5,-0.5,-0.5,-0.5,-0.5,0,113,113,93,,,,,,,,,,,,,,,,,,,,,,,,,,,,,,,,,,,,,,,,,,,,,,,,,left,0.07958099999814294,51.357889200007776,None,51.357889200007776,None,51.357889200007776,None,51.357889200007776,None,51.357889200007776,None,51.357889200007776,None,51.357889200007776,None,51.357889200007776,None,51.357889200007776,None,51.357889200007776,None,,,possum,2020_Jun_23_0832,Tymula Experiment,3.2.3,59.98890205940092,
-125,-125,0,25,25,0.325,50,-0.5,0.5,0.5,0.5,0.5,0,114,114,158,,,,,,,,,,,,,,,,,,,,,,,,,,,,,,,,,,,,,,,,,,,,,,,,,left,0.10431480000261217,51.52086590000545,None,51.52086590000545,None,51.52086590000545,None,51.52086590000545,None,51.52086590000545,None,51.52086590000545,None,51.52086590000545,None,51.52086590000545,None,51.52086590000545,None,51.52086590000545,None,,,possum,2020_Jun_23_0832,Tymula Experiment,3.2.3,59.98890205940092,
-125,-125,0,25,75,0.0,0,0.5,-0.5,-0.5,-0.5,-0.5,0,115,115,145,,,,,,,,,,,,,,,,,,,,,,,,,,,,,,,,,,,,,,,,,,,,,,,,,left,0.09324010001728311,51.72245150001254,None,51.72245150001254,None,51.72245150001254,None,51.72245150001254,None,51.72245150001254,None,51.72245150001254,None,51.72245150001254,None,51.72245150001254,None,51.72245150001254,None,51.72245150001254,None,,,possum,2020_Jun_23_0832,Tymula Experiment,3.2.3,59.98890205940092,
-125,-125,0,38,38,0.156,24,0.5,-0.5,-0.5,-0.5,-0.5,0,116,116,157,,,,,,,,,,,,,,,,,,,,,,,,,,,,,,,,,,,,,,,,,,,,,,,,,left,0.1529692000185605,51.9137083000096,None,51.9137083000096,None,51.9137083000096,None,51.9137083000096,None,51.9137083000096,None,51.9137083000096,None,51.9137083000096,None,51.9137083000096,None,51.9137083000096,None,51.9137083000096,None,,,possum,2020_Jun_23_0832,Tymula Experiment,3.2.3,59.98890205940092,
20,20,0,25,75,0.0,0,0.5,-0.5,-0.5,-0.5,-0.5,0,117,117,65,,,,,,,,,,,,,,,,,,,,,,,,,,,,,,,,,,,,,,,,,,,,,,,,,left,0.05269730000873096,52.16147039999487,None,52.16147039999487,None,52.16147039999487,None,52.16147039999487,None,52.16147039999487,None,52.16147039999487,None,52.16147039999487,None,52.16147039999487,None,52.16147039999487,None,52.16147039999487,None,,,possum,2020_Jun_23_0832,Tymula Experiment,3.2.3,59.98890205940092,
-50,-50,0,25,75,0.0,0,0.5,-0.5,-0.5,-0.5,-0.5,0,118,118,113,,,,,,,,,,,,,,,,,,,,,,,,,,,,,,,,,,,,,,,,,,,,,,,,,right,0.12560379999922588,52.289266500010854,None,52.289266500010854,None,52.289266500010854,None,52.289266500010854,None,52.289266500010854,None,52.289266500010854,None,52.289266500010854,None,52.289266500010854,None,52.289266500010854,None,52.289266500010854,None,,,possum,2020_Jun_23_0832,Tymula Experiment,3.2.3,59.98890205940092,
-20,-20,0,13,87,0.0,0,-0.5,0.5,0.5,0.5,0.5,0,119,119,80,,,,,,,,,,,,,,,,,,,,,,,,,,,,,,,,,,,,,,,,,,,,,,,,,left,0.09230740001657978,52.51386700000148,None,52.51386700000148,None,52.51386700000148,None,52.51386700000148,None,52.51386700000148,None,52.51386700000148,None,52.51386700000148,None,52.51386700000148,None,52.51386700000148,None,52.51386700000148,None,,,possum,2020_Jun_23_0832,Tymula Experiment,3.2.3,59.98890205940092,
8,8,0,50,50,0.0,0,0.5,-0.5,-0.5,-0.5,-0.5,0,120,120,35,,,,,,,,,,,,,,,,,,,,,,,,,,,,,,,,,,,,,,,,,,,,,,,,,right,0.08162000001175329,52.71256389998598,None,52.71256389998598,None,52.71256389998598,None,52.71256389998598,None,52.71256389998598,None,52.71256389998598,None,52.71256389998598,None,52.71256389998598,None,52.71256389998598,None,52.71256389998598,None,,,possum,2020_Jun_23_0832,Tymula Experiment,3.2.3,59.98890205940092,
20,20,0,13,13,0.481,74,0.5,-0.5,-0.5,-0.5,-0.5,0,121,121,79,,,,,,,,,,,,,,,,,,,,,,,,,,,,,,,,,,,,,,,,,,,,,,,,,left,0.1483985999948345,52.89582999999402,None,52.89582999999402,None,52.89582999999402,None,52.89582999999402,None,52.89582999999402,None,52.89582999999402,None,52.89582999999402,None,52.89582999999402,None,52.89582999999402,None,52.89582999999402,None,,,possum,2020_Jun_23_0832,Tymula Experiment,3.2.3,59.98890205940092,
5,5,0,75,25,0.0,0,-0.5,0.5,0.5,0.5,0.5,0,122,122,12,,,,,,,,,,,,,,,,,,,,,,,,,,,,,,,,,,,,,,,,,,,,,,,,,left,0.08429160001105629,53.15026769999531,None,53.15026769999531,None,53.15026769999531,None,53.15026769999531,None,53.15026769999531,None,53.15026769999531,None,53.15026769999531,None,53.15026769999531,None,53.15026769999531,None,53.15026769999531,None,,,possum,2020_Jun_23_0832,Tymula Experiment,3.2.3,59.98890205940092,
-20,-20,0,13,87,0.0,0,0.5,-0.5,-0.5,-0.5,-0.5,0,123,123,88,,,,,,,,,,,,,,,,,,,,,,,,,,,,,,,,,,,,,,,,,,,,,,,,,right,0.15014839998912066,53.30292650000774,None,53.30292650000774,None,53.30292650000774,None,53.30292650000774,None,53.30292650000774,None,53.30292650000774,None,53.30292650000774,None,53.30292650000774,None,53.30292650000774,None,53.30292650000774,None,,,possum,2020_Jun_23_0832,Tymula Experiment,3.2.3,59.98890205940092,
-125,-125,0,13,87,0.0,0,-0.5,0.5,0.5,0.5,0.5,0,124,124,144,,,,,,,,,,,,,,,,,,,,,,,,,,,,,,,,,,,,,,,,,,,,,,,,,right,0.12455379997845739,53.545305400009966,None,53.545305400009966,None,53.545305400009966,None,53.545305400009966,None,53.545305400009966,None,53.545305400009966,None,53.545305400009966,None,53.545305400009966,None,53.545305400009966,None,53.545305400009966,None,,,possum,2020_Jun_23_0832,Tymula Experiment,3.2.3,59.98890205940092,
-5,-5,0,13,87,0.0,0,0.5,-0.5,-0.5,-0.5,-0.5,0,125,125,24,,,,,,,,,,,,,,,,,,,,,,,,,,,,,,,,,,,,,,,,,,,,,,,,,right,0.21869199999491684,53.767212200007634,None,53.767212200007634,None,53.767212200007634,None,53.767212200007634,None,53.767212200007634,None,53.767212200007634,None,53.767212200007634,None,53.767212200007634,None,53.767212200007634,None,53.767212200007634,None,,,possum,2020_Jun_23_0832,Tymula Experiment,3.2.3,59.98890205940092,
125,125,0,75,25,0.0,0,-0.5,0.5,0.5,0.5,0.5,0,126,126,132,,,,,,,,,,,,,,,,,,,,,,,,,,,,,,,,,,,,,,,,,,,,,,,,,left,0.1593070000235457,54.07724640000379,None,54.07724640000379,None,54.07724640000379,None,54.07724640000379,None,54.07724640000379,None,54.07724640000379,None,54.07724640000379,None,54.07724640000379,None,54.07724640000379,None,54.07724640000379,None,,,possum,2020_Jun_23_0832,Tymula Experiment,3.2.3,59.98890205940092,
50,50,0,13,87,0.0,0,0.5,-0.5,-0.5,-0.5,-0.5,0,127,127,104,,,,,,,,,,,,,,,,,,,,,,,,,,,,,,,,,,,,,,,,,,,,,,,,,left,0.0937491999939084,54.330341599998064,None,54.330341599998064,None,54.330341599998064,None,54.330341599998064,None,54.330341599998064,None,54.330341599998064,None,54.330341599998064,None,54.330341599998064,None,54.330341599998064,None,54.330341599998064,None,,,possum,2020_Jun_23_0832,Tymula Experiment,3.2.3,59.98890205940092,
125,125,0,13,13,0.481,74,-0.5,0.5,0.5,0.5,0.5,0,128,128,135,,,,,,,,,,,,,,,,,,,,,,,,,,,,,,,,,,,,,,,,,,,,,,,,,left,0.338454599987017,54.50868170001195,None,54.50868170001195,None,54.50868170001195,None,54.50868170001195,None,54.50868170001195,None,54.50868170001195,None,54.50868170001195,None,54.50868170001195,None,54.50868170001195,None,54.50868170001195,None,,,possum,2020_Jun_23_0832,Tymula Experiment,3.2.3,59.98890205940092,
20,20,0,75,25,0.0,0,-0.5,0.5,0.5,0.5,0.5,0,129,129,76,,,,,,,,,,,,,,,,,,,,,,,,,,,,,,,,,,,,,,,,,,,,,,,,,left,0.12356229999568313,54.94383360000211,None,54.94383360000211,None,54.94383360000211,None,54.94383360000211,None,54.94383360000211,None,54.94383360000211,None,54.94383360000211,None,54.94383360000211,None,54.94383360000211,None,54.94383360000211,None,,,possum,2020_Jun_23_0832,Tymula Experiment,3.2.3,59.98890205940092,
-8,-8,0,75,25,0.0,0,-0.5,0.5,0.5,0.5,0.5,0,130,130,52,,,,,,,,,,,,,,,,,,,,,,,,,,,,,,,,,,,,,,,,,,,,,,,,,left,0.15081610000925139,55.160971900011646,None,55.160971900011646,None,55.160971900011646,None,55.160971900011646,None,55.160971900011646,None,55.160971900011646,None,55.160971900011646,None,55.160971900011646,None,55.160971900011646,None,55.160971900011646,None,,,possum,2020_Jun_23_0832,Tymula Experiment,3.2.3,59.98890205940092,
-5,-5,0,25,25,0.325,50,-0.5,0.5,0.5,0.5,0.5,0,131,131,30,,,,,,,,,,,,,,,,,,,,,,,,,,,,,,,,,,,,,,,,,,,,,,,,,right,0.17951269997865893,55.404400900006294,None,55.404400900006294,None,55.404400900006294,None,55.404400900006294,None,55.404400900006294,None,55.404400900006294,None,55.404400900006294,None,55.404400900006294,None,55.404400900006294,None,55.404400900006294,None,,,possum,2020_Jun_23_0832,Tymula Experiment,3.2.3,59.98890205940092,
125,125,0,50,50,0.0,0,-0.5,0.5,0.5,0.5,0.5,0,132,132,139,,,,,,,,,,,,,,,,,,,,,,,,,,,,,,,,,,,,,,,,,,,,,,,,,right,0.14856579998740926,55.67563519999385,None,55.67563519999385,None,55.67563519999385,None,55.67563519999385,None,55.67563519999385,None,55.67563519999385,None,55.67563519999385,None,55.67563519999385,None,55.67563519999385,None,55.67563519999385,None,,,possum,2020_Jun_23_0832,Tymula Experiment,3.2.3,59.98890205940092,
-5,-5,0,38,38,0.156,24,0.5,-0.5,-0.5,-0.5,-0.5,0,133,133,29,,,,,,,,,,,,,,,,,,,,,,,,,,,,,,,,,,,,,,,,,,,,,,,,,left,0.10391390000586398,55.90470139999525,None,55.90470139999525,None,55.90470139999525,None,55.90470139999525,None,55.90470139999525,None,55.90470139999525,None,55.90470139999525,None,55.90470139999525,None,55.90470139999525,None,55.90470139999525,None,,,possum,2020_Jun_23_0832,Tymula Experiment,3.2.3,59.98890205940092,
8,8,0,75,25,0.0,0,-0.5,0.5,0.5,0.5,0.5,0,134,134,44,,,,,,,,,,,,,,,,,,,,,,,,,,,,,,,,,,,,,,,,,,,,,,,,,left,0.11649009998654947,56.105710000003455,None,56.105710000003455,None,56.105710000003455,None,56.105710000003455,None,56.105710000003455,None,56.105710000003455,None,56.105710000003455,None,56.105710000003455,None,56.105710000003455,None,56.105710000003455,None,,,possum,2020_Jun_23_0832,Tymula Experiment,3.2.3,59.98890205940092,
-5,-5,0,75,25,0.0,0,-0.5,0.5,0.5,0.5,0.5,0,135,135,28,,,,,,,,,,,,,,,,,,,,,,,,,,,,,,,,,,,,,,,,,,,,,,,,,right,0.3613123999966774,56.30970029998571,None,56.30970029998571,None,56.30970029998571,None,56.30970029998571,None,56.30970029998571,None,56.30970029998571,None,56.30970029998571,None,56.30970029998571,None,56.30970029998571,None,56.30970029998571,None,,,possum,2020_Jun_23_0832,Tymula Experiment,3.2.3,59.98890205940092,
-5,-5,0,25,25,0.325,50,0.5,-0.5,-0.5,-0.5,-0.5,0,136,136,22,,,,,,,,,,,,,,,,,,,,,,,,,,,,,,,,,,,,,,,,,,,,,,,,,right,0.15016520000062883,56.75430949998554,None,56.75430949998554,None,56.75430949998554,None,56.75430949998554,None,56.75430949998554,None,56.75430949998554,None,56.75430949998554,None,56.75430949998554,None,56.75430949998554,None,56.75430949998554,None,,,possum,2020_Jun_23_0832,Tymula Experiment,3.2.3,59.98890205940092,
5,5,0,50,50,0.0,0,0.5,-0.5,-0.5,-0.5,-0.5,0,137,137,3,,,,,,,,,,,,,,,,,,,,,,,,,,,,,,,,,,,,,,,,,,,,,,,,,left,0.12372649999451824,57.004744100006064,None,57.004744100006064,None,57.004744100006064,None,57.004744100006064,None,57.004744100006064,None,57.004744100006064,None,57.004744100006064,None,57.004744100006064,None,57.004744100006064,None,57.004744100006064,None,,,possum,2020_Jun_23_0832,Tymula Experiment,3.2.3,59.98890205940092,
-20,-20,0,25,75,0.0,0,0.5,-0.5,-0.5,-0.5,-0.5,0,138,138,81,,,,,,,,,,,,,,,,,,,,,,,,,,,,,,,,,,,,,,,,,,,,,,,,,left,0.17007380002178252,57.20019870001124,None,57.20019870001124,None,57.20019870001124,None,57.20019870001124,None,57.20019870001124,None,57.20019870001124,None,57.20019870001124,None,57.20019870001124,None,57.20019870001124,None,57.20019870001124,None,,,possum,2020_Jun_23_0832,Tymula Experiment,3.2.3,59.98890205940092,
-8,-8,0,25,25,0.325,50,0.5,-0.5,-0.5,-0.5,-0.5,0,139,139,54,,,,,,,,,,,,,,,,,,,,,,,,,,,,,,,,,,,,,,,,,,,,,,,,,left,0.1249573000241071,57.45940930000506,None,57.45940930000506,None,57.45940930000506,None,57.45940930000506,None,57.45940930000506,None,57.45940930000506,None,57.45940930000506,None,57.45940930000506,None,57.45940930000506,None,57.45940930000506,None,,,possum,2020_Jun_23_0832,Tymula Experiment,3.2.3,59.98890205940092,
50,50,0,75,25,0.0,0,-0.5,0.5,0.5,0.5,0.5,0,140,140,108,,,,,,,,,,,,,,,,,,,,,,,,,,,,,,,,,,,,,,,,,,,,,,,,,left,0.18500160000985488,57.67433449998498,None,57.67433449998498,None,57.67433449998498,None,57.67433449998498,None,57.67433449998498,None,57.67433449998498,None,57.67433449998498,None,57.67433449998498,None,57.67433449998498,None,57.67433449998498,None,,,possum,2020_Jun_23_0832,Tymula Experiment,3.2.3,59.98890205940092,
5,5,0,25,75,0.0,0,0.5,-0.5,-0.5,-0.5,-0.5,0,141,141,1,,,,,,,,,,,,,,,,,,,,,,,,,,,,,,,,,,,,,,,,,,,,,,,,,right,0.33824450001702644,57.95140769999125,None,57.95140769999125,None,57.95140769999125,None,57.95140769999125,None,57.95140769999125,None,57.95140769999125,None,57.95140769999125,None,57.95140769999125,None,57.95140769999125,None,57.95140769999125,None,,,possum,2020_Jun_23_0832,Tymula Experiment,3.2.3,59.98890205940092,
-5,-5,0,38,62,0.0,0,0.5,-0.5,-0.5,-0.5,-0.5,0,142,142,26,,,,,,,,,,,,,,,,,,,,,,,,,,,,,,,,,,,,,,,,,,,,,,,,,left,0.12161610001930967,58.380069500009995,None,58.380069500009995,None,58.380069500009995,None,58.380069500009995,None,58.380069500009995,None,58.380069500009995,None,58.380069500009995,None,58.380069500009995,None,58.380069500009995,None,58.380069500009995,None,,,possum,2020_Jun_23_0832,Tymula Experiment,3.2.3,59.98890205940092,
-125,-125,0,38,62,0.0,0,0.5,-0.5,-0.5,-0.5,-0.5,0,143,143,154,,,,,,,,,,,,,,,,,,,,,,,,,,,,,,,,,,,,,,,,,,,,,,,,,left,0.12018099997658283,58.589889399998356,None,58.589889399998356,None,58.589889399998356,None,58.589889399998356,None,58.589889399998356,None,58.589889399998356,None,58.589889399998356,None,58.589889399998356,None,58.589889399998356,None,58.589889399998356,None,,,possum,2020_Jun_23_0832,Tymula Experiment,3.2.3,59.98890205940092,
-50,-50,0,13,13,0.481,74,-0.5,0.5,0.5,0.5,0.5,0,144,144,119,,,,,,,,,,,,,,,,,,,,,,,,,,,,,,,,,,,,,,,,,,,,,,,,,right,0.0624658000015188,58.811327600007644,None,58.811327600007644,None,58.811327600007644,None,58.811327600007644,None,58.811327600007644,None,58.811327600007644,None,58.811327600007644,None,58.811327600007644,None,58.811327600007644,None,58.811327600007644,None,,,possum,2020_Jun_23_0832,Tymula Experiment,3.2.3,59.98890205940092,
125,125,0,50,50,0.0,0,0.5,-0.5,-0.5,-0.5,-0.5,0,145,145,131,,,,,,,,,,,,,,,,,,,,,,,,,,,,,,,,,,,,,,,,,,,,,,,,,left,0.12053970000124536,58.97895459999563,None,58.97895459999563,None,58.97895459999563,None,58.97895459999563,None,58.97895459999563,None,58.97895459999563,None,58.97895459999563,None,58.97895459999563,None,58.97895459999563,None,58.97895459999563,None,,,possum,2020_Jun_23_0832,Tymula Experiment,3.2.3,59.98890205940092,
125,125,0,25,75,0.0,0,0.5,-0.5,-0.5,-0.5,-0.5,0,146,146,129,,,,,,,,,,,,,,,,,,,,,,,,,,,,,,,,,,,,,,,,,,,,,,,,,right,0.11069470000802539,59.18815319999703,None,59.18815319999703,None,59.18815319999703,None,59.18815319999703,None,59.18815319999703,None,59.18815319999703,None,59.18815319999703,None,59.18815319999703,None,59.18815319999703,None,59.18815319999703,None,,,possum,2020_Jun_23_0832,Tymula Experiment,3.2.3,59.98890205940092,
5,5,0,13,87,0.0,0,-0.5,0.5,0.5,0.5,0.5,0,147,147,0,,,,,,,,,,,,,,,,,,,,,,,,,,,,,,,,,,,,,,,,,,,,,,,,,right,0.18906120001338422,59.35897410000325,None,59.35897410000325,None,59.35897410000325,None,59.35897410000325,None,59.35897410000325,None,59.35897410000325,None,59.35897410000325,None,59.35897410000325,None,59.35897410000325,None,59.35897410000325,None,,,possum,2020_Jun_23_0832,Tymula Experiment,3.2.3,59.98890205940092,
-5,-5,0,25,75,0.0,0,0.5,-0.5,-0.5,-0.5,-0.5,0,148,148,17,,,,,,,,,,,,,,,,,,,,,,,,,,,,,,,,,,,,,,,,,,,,,,,,,left,0.07729629997629672,59.63926050000009,None,59.63926050000009,None,59.63926050000009,None,59.63926050000009,None,59.63926050000009,None,59.63926050000009,None,59.63926050000009,None,59.63926050000009,None,59.63926050000009,None,59.63926050000009,None,,,possum,2020_Jun_23_0832,Tymula Experiment,3.2.3,59.98890205940092,
-8,-8,0,13,13,0.481,74,0.5,-0.5,-0.5,-0.5,-0.5,0,149,149,63,,,,,,,,,,,,,,,,,,,,,,,,,,,,,,,,,,,,,,,,,,,,,,,,,right,0.07636519998777658,59.808258200006094,None,59.808258200006094,None,59.808258200006094,None,59.808258200006094,None,59.808258200006094,None,59.808258200006094,None,59.808258200006094,None,59.808258200006094,None,59.808258200006094,None,59.808258200006094,None,,,possum,2020_Jun_23_0832,Tymula Experiment,3.2.3,59.98890205940092,
8,8,0,75,25,0.0,0,-0.5,0.5,0.5,0.5,0.5,0,150,150,36,,,,,,,,,,,,,,,,,,,,,,,,,,,,,,,,,,,,,,,,,,,,,,,,,right,0.1302373000071384,59.971088299993426,None,59.971088299993426,None,59.971088299993426,None,59.971088299993426,None,59.971088299993426,None,59.971088299993426,None,59.971088299993426,None,59.971088299993426,None,59.971088299993426,None,59.971088299993426,None,,,possum,2020_Jun_23_0832,Tymula Experiment,3.2.3,59.98890205940092,
125,125,0,38,38,0.156,24,0.5,-0.5,-0.5,-0.5,-0.5,0,151,151,141,,,,,,,,,,,,,,,,,,,,,,,,,,,,,,,,,,,,,,,,,,,,,,,,,left,0.08731360000092536,60.18454109999584,None,60.18454109999584,None,60.18454109999584,None,60.18454109999584,None,60.18454109999584,None,60.18454109999584,None,60.18454109999584,None,60.18454109999584,None,60.18454109999584,None,60.18454109999584,None,,,possum,2020_Jun_23_0832,Tymula Experiment,3.2.3,59.98890205940092,
20,20,0,13,87,0.0,0,-0.5,0.5,0.5,0.5,0.5,0,152,152,64,,,,,,,,,,,,,,,,,,,,,,,,,,,,,,,,,,,,,,,,,,,,,,,,,left,0.07929110000259243,60.37296099998639,None,60.37296099998639,None,60.37296099998639,None,60.37296099998639,None,60.37296099998639,None,60.37296099998639,None,60.37296099998639,None,60.37296099998639,None,60.37296099998639,None,60.37296099998639,None,,,possum,2020_Jun_23_0832,Tymula Experiment,3.2.3,59.98890205940092,
-5,-5,0,13,13,0.481,74,-0.5,0.5,0.5,0.5,0.5,0,153,153,23,,,,,,,,,,,,,,,,,,,,,,,,,,,,,,,,,,,,,,,,,,,,,,,,,right,0.29949440000928007,60.547463900002185,None,60.547463900002185,None,60.547463900002185,None,60.547463900002185,None,60.547463900002185,None,60.547463900002185,None,60.547463900002185,None,60.547463900002185,None,60.547463900002185,None,60.547463900002185,None,,,possum,2020_Jun_23_0832,Tymula Experiment,3.2.3,59.98890205940092,
-125,-125,0,75,25,0.0,0,-0.5,0.5,0.5,0.5,0.5,0,154,154,156,,,,,,,,,,,,,,,,,,,,,,,,,,,,,,,,,,,,,,,,,,,,,,,,,left,0.043995599990012124,60.941837399994256,None,60.941837399994256,None,60.941837399994256,None,60.941837399994256,None,60.941837399994256,None,60.941837399994256,None,60.941837399994256,None,60.941837399994256,None,60.941837399994256,None,60.941837399994256,None,,,possum,2020_Jun_23_0832,Tymula Experiment,3.2.3,59.98890205940092,
-125,-125,0,50,50,0.0,0,-0.5,0.5,0.5,0.5,0.5,0,155,155,155,,,,,,,,,,,,,,,,,,,,,,,,,,,,,,,,,,,,,,,,,,,,,,,,,left,48.66385949999676,61.086794700007886,None,61.086794700007886,None,61.086794700007886,None,61.086794700007886,None,61.086794700007886,None,61.086794700007886,None,61.086794700007886,None,61.086794700007886,None,61.086794700007886,None,61.086794700007886,None,,,possum,2020_Jun_23_0832,Tymula Experiment,3.2.3,59.98890205940092,
-125,-125,0,50,50,0.0,0,0.5,-0.5,-0.5,-0.5,-0.5,0,156,156,147,,,,,,,,,,,,,,,,,,,,,,,,,,,,,,,,,,,,,,,,,,,,,,,,,right,0.18670800002291799,109.84867239999585,None,109.84867239999585,None,109.84867239999585,None,109.84867239999585,None,109.84867239999585,None,109.84867239999585,None,109.84867239999585,None,109.84867239999585,None,109.84867239999585,None,109.84867239999585,None,,,possum,2020_Jun_23_0832,Tymula Experiment,3.2.3,59.98890205940092,
-50,-50,0,25,25,0.325,50,0.5,-0.5,-0.5,-0.5,-0.5,0,157,157,118,,,,,,,,,,,,,,,,,,,,,,,,,,,,,,,,,,,,,,,,,,,,,,,,,left,0.30159099999582395,110.12875199998962,None,110.12875199998962,None,110.12875199998962,None,110.12875199998962,None,110.12875199998962,None,110.12875199998962,None,110.12875199998962,None,110.12875199998962,None,110.12875199998962,None,110.12875199998962,None,,,possum,2020_Jun_23_0832,Tymula Experiment,3.2.3,59.98890205940092,
20,20,0,38,62,0.0,0,0.5,-0.5,-0.5,-0.5,-0.5,0,158,158,74,,,,,,,,,,,,,,,,,,,,,,,,,,,,,,,,,,,,,,,,,,,,,,,,,right,0.13575349998427555,110.52484369999729,None,110.52484369999729,None,110.52484369999729,None,110.52484369999729,None,110.52484369999729,None,110.52484369999729,None,110.52484369999729,None,110.52484369999729,None,110.52484369999729,None,110.52484369999729,None,,,possum,2020_Jun_23_0832,Tymula Experiment,3.2.3,59.98890205940092,
125,125,0,38,38,0.156,24,-0.5,0.5,0.5,0.5,0.5,0,159,159,133,,,,,,,,,,,,,,,,,,,,,,,,,,,,,,,,,,,,,,,,,,,,,,,,,left,0.11966990001383238,110.75614089998999,None,110.75614089998999,None,110.75614089998999,None,110.75614089998999,None,110.75614089998999,None,110.75614089998999,None,110.75614089998999,None,110.75614089998999,None,110.75614089998999,None,110.75614089998999,None,,,possum,2020_Jun_23_0832,Tymula Experiment,3.2.3,59.98890205940092,
,,,,,,,,,,,,,,,,,,,,,,,,,,,,,,,,,,,,,,,,,,,,,,,,,,,,,,,,,,,,,,,,,,,,,,,,,,,,,,,,,,,,,,110.90461910000886,None,,,,,,
