key_resp_2.keys,key_resp_2.rt,key_resp.keys,key_resp.rt,trials.thisRepN,trials.thisTrialN,trials.thisN,trials.thisIndex,trials.ran,trials.order,Sure,OptionOne,OptionTwo,Risk,Risk2,AmbiguityBarH,Ambiguity,SureXPos,RiskXPos,OptionOneXPos,OptionTwoXPos,RiskX,participant,date,expName,psychopyVersion,OS,frameRate
space,13.55299973,right,10.01899981,1,0,160,141,1,159,125,125,0,38,38,0.156,24,0.5,-0.5,-0.5,-0.5,-0.5,room,2020-07-29_11h48.05.112,Tymula Experiment,3.2.3,Win32,60
,,left,7.349999905,1,0,160,78,1,159,20,20,0,25,25,0.325,50,-0.5,0.5,0.5,0.5,0.5,room,2020-07-29_11h48.05.112,Tymula Experiment,3.2.3,Win32,60
,,right,18.04999995,1,0,160,84,1,159,-20,-20,0,75,25,0,0,-0.5,0.5,0.5,0.5,0.5,room,2020-07-29_11h48.05.112,Tymula Experiment,3.2.3,Win32,60
,,left,5.31799984,1,0,160,113,1,159,-50,-50,0,25,75,0,0,0.5,-0.5,-0.5,-0.5,-0.5,room,2020-07-29_11h48.05.112,Tymula Experiment,3.2.3,Win32,60
,,left,5.612999916,1,0,160,32,1,159,8,8,0,13,87,0,0,-0.5,0.5,0.5,0.5,0.5,room,2020-07-29_11h48.05.112,Tymula Experiment,3.2.3,Win32,60
,,right,4.096999884,1,0,160,123,1,159,-50,-50,0,50,50,0,0,-0.5,0.5,0.5,0.5,0.5,room,2020-07-29_11h48.05.112,Tymula Experiment,3.2.3,Win32,60
,,right,9.967999697,1,0,160,85,1,159,-20,-20,0,38,38,0.156,24,-0.5,0.5,0.5,0.5,0.5,room,2020-07-29_11h48.05.112,Tymula Experiment,3.2.3,Win32,60
,,left,5.586999893,1,0,160,24,1,159,-5,-5,0,13,87,0,0,0.5,-0.5,-0.5,-0.5,-0.5,room,2020-07-29_11h48.05.112,Tymula Experiment,3.2.3,Win32,60
,,left,4.751999855,1,0,160,41,1,159,8,8,0,25,75,0,0,-0.5,0.5,0.5,0.5,0.5,room,2020-07-29_11h48.05.112,Tymula Experiment,3.2.3,Win32,60
,,right,7.417999983,1,0,160,89,1,159,-20,-20,0,25,75,0,0,-0.5,0.5,0.5,0.5,0.5,room,2020-07-29_11h48.05.112,Tymula Experiment,3.2.3,Win32,60
,,left,5.330999851,1,0,160,0,1,159,5,5,0,13,87,0,0,-0.5,0.5,0.5,0.5,0.5,room,2020-07-29_11h48.05.112,Tymula Experiment,3.2.3,Win32,60
,,right,4.167000055,1,0,160,136,1,159,125,125,0,13,87,0,0,0.5,-0.5,-0.5,-0.5,-0.5,room,2020-07-29_11h48.05.112,Tymula Experiment,3.2.3,Win32,60
,,right,5.345999956,1,0,160,10,1,159,5,5,0,38,62,0,0,0.5,-0.5,-0.5,-0.5,-0.5,room,2020-07-29_11h48.05.112,Tymula Experiment,3.2.3,Win32,60
,,right,4.281999826,1,0,160,124,1,159,-50,-50,0,75,25,0,0,-0.5,0.5,0.5,0.5,0.5,room,2020-07-29_11h48.05.112,Tymula Experiment,3.2.3,Win32,60
,,left,7.030999899,1,0,160,22,1,159,-5,-5,0,25,25,0.325,50,0.5,-0.5,-0.5,-0.5,-0.5,room,2020-07-29_11h48.05.112,Tymula Experiment,3.2.3,Win32,60
,,left,2.695999861,1,0,160,139,1,159,125,125,0,50,50,0,0,-0.5,0.5,0.5,0.5,0.5,room,2020-07-29_11h48.05.112,Tymula Experiment,3.2.3,Win32,60
,,right,3.368999958,1,0,160,134,1,159,125,125,0,25,25,0.325,50,0.5,-0.5,-0.5,-0.5,-0.5,room,2020-07-29_11h48.05.112,Tymula Experiment,3.2.3,Win32,60
,,right,4.481999874,1,0,160,30,1,159,-5,-5,0,25,25,0.325,50,-0.5,0.5,0.5,0.5,0.5,room,2020-07-29_11h48.05.112,Tymula Experiment,3.2.3,Win32,60
,,right,8.296000004,1,0,160,158,1,159,-125,-125,0,25,25,0.325,50,-0.5,0.5,0.5,0.5,0.5,room,2020-07-29_11h48.05.112,Tymula Experiment,3.2.3,Win32,60
,,left,3.049000025,1,0,160,46,1,159,8,8,0,25,25,0.325,50,-0.5,0.5,0.5,0.5,0.5,room,2020-07-29_11h48.05.112,Tymula Experiment,3.2.3,Win32,60
,,left,4.099999666,1,0,160,140,1,159,125,125,0,75,25,0,0,-0.5,0.5,0.5,0.5,0.5,room,2020-07-29_11h48.05.112,Tymula Experiment,3.2.3,Win32,60
,,right,7.546999931,1,0,160,25,1,159,-5,-5,0,25,75,0,0,-0.5,0.5,0.5,0.5,0.5,room,2020-07-29_11h48.05.112,Tymula Experiment,3.2.3,Win32,60
,,right,5.116999865,1,0,160,45,1,159,8,8,0,38,38,0.156,24,0.5,-0.5,-0.5,-0.5,-0.5,room,2020-07-29_11h48.05.112,Tymula Experiment,3.2.3,Win32,60
,,left,9.897999763,1,0,160,118,1,159,-50,-50,0,25,25,0.325,50,0.5,-0.5,-0.5,-0.5,-0.5,room,2020-07-29_11h48.05.112,Tymula Experiment,3.2.3,Win32,60
,,left,2.795999765,1,0,160,142,1,159,125,125,0,25,25,0.325,50,-0.5,0.5,0.5,0.5,0.5,room,2020-07-29_11h48.05.112,Tymula Experiment,3.2.3,Win32,60
,,left,2.982999802,1,0,160,43,1,159,8,8,0,50,50,0,0,-0.5,0.5,0.5,0.5,0.5,room,2020-07-29_11h48.05.112,Tymula Experiment,3.2.3,Win32,60
,,right,5.078999996,1,0,160,156,1,159,-125,-125,0,75,25,0,0,-0.5,0.5,0.5,0.5,0.5,room,2020-07-29_11h48.05.112,Tymula Experiment,3.2.3,Win32,60
,,right,2.582000017,1,0,160,99,1,159,50,50,0,50,50,0,0,0.5,-0.5,-0.5,-0.5,-0.5,room,2020-07-29_11h48.05.112,Tymula Experiment,3.2.3,Win32,60
,,right,2.397000074,1,0,160,131,1,159,125,125,0,50,50,0,0,0.5,-0.5,-0.5,-0.5,-0.5,room,2020-07-29_11h48.05.112,Tymula Experiment,3.2.3,Win32,60
,,right,6.364999771,1,0,160,60,1,159,-8,-8,0,75,25,0,0,-0.5,0.5,0.5,0.5,0.5,room,2020-07-29_11h48.05.112,Tymula Experiment,3.2.3,Win32,60
,,left,2.697999954,1,0,160,128,1,159,125,125,0,13,87,0,0,-0.5,0.5,0.5,0.5,0.5,room,2020-07-29_11h48.05.112,Tymula Experiment,3.2.3,Win32,60
,,left,4.10199976,1,0,160,36,1,159,8,8,0,75,25,0,0,-0.5,0.5,0.5,0.5,0.5,room,2020-07-29_11h48.05.112,Tymula Experiment,3.2.3,Win32,60
,,left,2.480999947,1,0,160,133,1,159,125,125,0,38,38,0.156,24,-0.5,0.5,0.5,0.5,0.5,room,2020-07-29_11h48.05.112,Tymula Experiment,3.2.3,Win32,60
,,right,2.051999807,1,0,160,15,1,159,5,5,0,13,13,0.481,74,0.5,-0.5,-0.5,-0.5,-0.5,room,2020-07-29_11h48.05.112,Tymula Experiment,3.2.3,Win32,60
,,right,1.967000008,1,0,160,13,1,159,5,5,0,38,38,0.156,24,0.5,-0.5,-0.5,-0.5,-0.5,room,2020-07-29_11h48.05.112,Tymula Experiment,3.2.3,Win32,60
,,right,3.35199976,1,0,160,28,1,159,-5,-5,0,75,25,0,0,-0.5,0.5,0.5,0.5,0.5,room,2020-07-29_11h48.05.112,Tymula Experiment,3.2.3,Win32,60
,,left,6.580999851,1,0,160,145,1,159,-125,-125,0,25,75,0,0,0.5,-0.5,-0.5,-0.5,-0.5,room,2020-07-29_11h48.05.112,Tymula Experiment,3.2.3,Win32,60
,,right,2.86500001,1,0,160,92,1,159,-20,-20,0,75,25,0,0,-0.5,0.5,0.5,0.5,0.5,room,2020-07-29_11h48.05.112,Tymula Experiment,3.2.3,Win32,60
,,right,4.545999765,1,0,160,119,1,159,-50,-50,0,13,13,0.481,74,-0.5,0.5,0.5,0.5,0.5,room,2020-07-29_11h48.05.112,Tymula Experiment,3.2.3,Win32,60
,,left,2.661999702,1,0,160,19,1,159,-5,-5,0,50,50,0,0,0.5,-0.5,-0.5,-0.5,-0.5,room,2020-07-29_11h48.05.112,Tymula Experiment,3.2.3,Win32,60
,,left,1.430999994,1,0,160,29,1,159,-5,-5,0,38,38,0.156,24,0.5,-0.5,-0.5,-0.5,-0.5,room,2020-07-29_11h48.05.112,Tymula Experiment,3.2.3,Win32,60
,,right,1.602999687,1,0,160,79,1,159,20,20,0,13,13,0.481,74,0.5,-0.5,-0.5,-0.5,-0.5,room,2020-07-29_11h48.05.112,Tymula Experiment,3.2.3,Win32,60
,,left,1.832000017,1,0,160,95,1,159,-20,-20,0,13,13,0.481,74,0.5,-0.5,-0.5,-0.5,-0.5,room,2020-07-29_11h48.05.112,Tymula Experiment,3.2.3,Win32,60
,,left,6.464999676,1,0,160,152,1,159,-125,-125,0,13,87,0,0,0.5,-0.5,-0.5,-0.5,-0.5,room,2020-07-29_11h48.05.112,Tymula Experiment,3.2.3,Win32,60
,,left,3.09499979,1,0,160,64,1,159,20,20,0,13,87,0,0,-0.5,0.5,0.5,0.5,0.5,room,2020-07-29_11h48.05.112,Tymula Experiment,3.2.3,Win32,60
,,right,2.152999878,1,0,160,48,1,159,-8,-8,0,13,87,0,0,-0.5,0.5,0.5,0.5,0.5,room,2020-07-29_11h48.05.112,Tymula Experiment,3.2.3,Win32,60
,,right,2.07799983,1,0,160,67,1,159,20,20,0,50,50,0,0,0.5,-0.5,-0.5,-0.5,-0.5,room,2020-07-29_11h48.05.112,Tymula Experiment,3.2.3,Win32,60
,,left,3.015999794,1,0,160,2,1,159,5,5,0,38,62,0,0,-0.5,0.5,0.5,0.5,0.5,room,2020-07-29_11h48.05.112,Tymula Experiment,3.2.3,Win32,60
,,left,2.9599998,1,0,160,14,1,159,5,5,0,25,25,0.325,50,-0.5,0.5,0.5,0.5,0.5,room,2020-07-29_11h48.05.112,Tymula Experiment,3.2.3,Win32,60
,,right,2.346999884,1,0,160,18,1,159,-5,-5,0,38,62,0,0,-0.5,0.5,0.5,0.5,0.5,room,2020-07-29_11h48.05.112,Tymula Experiment,3.2.3,Win32,60
,,right,1.65199995,1,0,160,112,1,159,-50,-50,0,13,87,0,0,-0.5,0.5,0.5,0.5,0.5,room,2020-07-29_11h48.05.112,Tymula Experiment,3.2.3,Win32,60
,,right,1.582000017,1,0,160,87,1,159,-20,-20,0,13,13,0.481,74,-0.5,0.5,0.5,0.5,0.5,room,2020-07-29_11h48.05.112,Tymula Experiment,3.2.3,Win32,60
,,right,2.030999899,1,0,160,129,1,159,125,125,0,25,75,0,0,0.5,-0.5,-0.5,-0.5,-0.5,room,2020-07-29_11h48.05.112,Tymula Experiment,3.2.3,Win32,60
,,left,3.731999874,1,0,160,11,1,159,5,5,0,50,50,0,0,-0.5,0.5,0.5,0.5,0.5,room,2020-07-29_11h48.05.112,Tymula Experiment,3.2.3,Win32,60
,,right,7.431999922,1,0,160,148,1,159,-125,-125,0,75,25,0,0,-0.5,0.5,0.5,0.5,0.5,room,2020-07-29_11h48.05.112,Tymula Experiment,3.2.3,Win32,60
,,right,3.714999914,1,0,160,69,1,159,20,20,0,38,38,0.156,24,-0.5,0.5,0.5,0.5,0.5,room,2020-07-29_11h48.05.112,Tymula Experiment,3.2.3,Win32,60
,,left,2.065999985,1,0,160,44,1,159,8,8,0,75,25,0,0,-0.5,0.5,0.5,0.5,0.5,room,2020-07-29_11h48.05.112,Tymula Experiment,3.2.3,Win32,60
,,right,1.981999874,1,0,160,6,1,159,5,5,0,25,25,0.325,50,0.5,-0.5,-0.5,-0.5,-0.5,room,2020-07-29_11h48.05.112,Tymula Experiment,3.2.3,Win32,60
,,left,1.465999842,1,0,160,39,1,159,8,8,0,13,13,0.481,74,-0.5,0.5,0.5,0.5,0.5,room,2020-07-29_11h48.05.112,Tymula Experiment,3.2.3,Win32,60
,,right,2.098999739,1,0,160,74,1,159,20,20,0,38,62,0,0,0.5,-0.5,-0.5,-0.5,-0.5,room,2020-07-29_11h48.05.112,Tymula Experiment,3.2.3,Win32,60
,,right,1.513999701,1,0,160,65,1,159,20,20,0,25,75,0,0,0.5,-0.5,-0.5,-0.5,-0.5,room,2020-07-29_11h48.05.112,Tymula Experiment,3.2.3,Win32,60
,,right,1.582999945,1,0,160,153,1,159,-125,-125,0,25,75,0,0,-0.5,0.5,0.5,0.5,0.5,room,2020-07-29_11h48.05.112,Tymula Experiment,3.2.3,Win32,60
,,right,2.563999891,1,0,160,59,1,159,-8,-8,0,50,50,0,0,-0.5,0.5,0.5,0.5,0.5,room,2020-07-29_11h48.05.112,Tymula Experiment,3.2.3,Win32,60
,,left,1.299999952,1,0,160,26,1,159,-5,-5,0,38,62,0,0,0.5,-0.5,-0.5,-0.5,-0.5,room,2020-07-29_11h48.05.112,Tymula Experiment,3.2.3,Win32,60
,,right,2.031999826,1,0,160,149,1,159,-125,-125,0,38,38,0.156,24,-0.5,0.5,0.5,0.5,0.5,room,2020-07-29_11h48.05.112,Tymula Experiment,3.2.3,Win32,60
,,left,1.615999699,1,0,160,154,1,159,-125,-125,0,38,62,0,0,0.5,-0.5,-0.5,-0.5,-0.5,room,2020-07-29_11h48.05.112,Tymula Experiment,3.2.3,Win32,60
,,left,1.544999838,1,0,160,105,1,159,50,50,0,25,75,0,0,-0.5,0.5,0.5,0.5,0.5,room,2020-07-29_11h48.05.112,Tymula Experiment,3.2.3,Win32,60
,,right,2.086999893,1,0,160,53,1,159,-8,-8,0,38,38,0.156,24,-0.5,0.5,0.5,0.5,0.5,room,2020-07-29_11h48.05.112,Tymula Experiment,3.2.3,Win32,60
,,right,1.880999804,1,0,160,106,1,159,50,50,0,38,62,0,0,0.5,-0.5,-0.5,-0.5,-0.5,room,2020-07-29_11h48.05.112,Tymula Experiment,3.2.3,Win32,60
,,right,1.415999889,1,0,160,33,1,159,8,8,0,25,75,0,0,0.5,-0.5,-0.5,-0.5,-0.5,room,2020-07-29_11h48.05.112,Tymula Experiment,3.2.3,Win32,60
,,left,1.316999912,1,0,160,49,1,159,-8,-8,0,25,75,0,0,0.5,-0.5,-0.5,-0.5,-0.5,room,2020-07-29_11h48.05.112,Tymula Experiment,3.2.3,Win32,60
,,right,1.665999889,1,0,160,35,1,159,8,8,0,50,50,0,0,0.5,-0.5,-0.5,-0.5,-0.5,room,2020-07-29_11h48.05.112,Tymula Experiment,3.2.3,Win32,60
,,right,1.531999826,1,0,160,94,1,159,-20,-20,0,25,25,0.325,50,-0.5,0.5,0.5,0.5,0.5,room,2020-07-29_11h48.05.112,Tymula Experiment,3.2.3,Win32,60
,,right,2.881999969,1,0,160,111,1,159,50,50,0,13,13,0.481,74,0.5,-0.5,-0.5,-0.5,-0.5,room,2020-07-29_11h48.05.112,Tymula Experiment,3.2.3,Win32,60
,,right,1.06099987,1,0,160,138,1,159,125,125,0,38,62,0,0,0.5,-0.5,-0.5,-0.5,-0.5,room,2020-07-29_11h48.05.112,Tymula Experiment,3.2.3,Win32,60
,,right,1.384999752,1,0,160,47,1,159,8,8,0,13,13,0.481,74,0.5,-0.5,-0.5,-0.5,-0.5,room,2020-07-29_11h48.05.112,Tymula Experiment,3.2.3,Win32,60
,,right,1.199999809,1,0,160,40,1,159,8,8,0,13,87,0,0,0.5,-0.5,-0.5,-0.5,-0.5,room,2020-07-29_11h48.05.112,Tymula Experiment,3.2.3,Win32,60
,,right,1.267999887,1,0,160,8,1,159,5,5,0,13,87,0,0,0.5,-0.5,-0.5,-0.5,-0.5,room,2020-07-29_11h48.05.112,Tymula Experiment,3.2.3,Win32,60
,,left,1.75,1,0,160,4,1,159,5,5,0,75,25,0,0,-0.5,0.5,0.5,0.5,0.5,room,2020-07-29_11h48.05.112,Tymula Experiment,3.2.3,Win32,60
,,right,1.363999844,1,0,160,116,1,159,-50,-50,0,75,25,0,0,-0.5,0.5,0.5,0.5,0.5,room,2020-07-29_11h48.05.112,Tymula Experiment,3.2.3,Win32,60
,,right,2.299999952,1,0,160,50,1,159,-8,-8,0,38,62,0,0,-0.5,0.5,0.5,0.5,0.5,room,2020-07-29_11h48.05.112,Tymula Experiment,3.2.3,Win32,60
,,right,1.114999771,1,0,160,80,1,159,-20,-20,0,13,87,0,0,-0.5,0.5,0.5,0.5,0.5,room,2020-07-29_11h48.05.112,Tymula Experiment,3.2.3,Win32,60
,,right,1.198999882,1,0,160,126,1,159,-50,-50,0,25,25,0.325,50,-0.5,0.5,0.5,0.5,0.5,room,2020-07-29_11h48.05.112,Tymula Experiment,3.2.3,Win32,60
,,right,1.149999857,1,0,160,82,1,159,-20,-20,0,38,62,0,0,-0.5,0.5,0.5,0.5,0.5,room,2020-07-29_11h48.05.112,Tymula Experiment,3.2.3,Win32,60
,,right,1.264999866,1,0,160,151,1,159,-125,-125,0,13,13,0.481,74,-0.5,0.5,0.5,0.5,0.5,room,2020-07-29_11h48.05.112,Tymula Experiment,3.2.3,Win32,60
,,right,1.166999817,1,0,160,16,1,159,-5,-5,0,13,87,0,0,-0.5,0.5,0.5,0.5,0.5,room,2020-07-29_11h48.05.112,Tymula Experiment,3.2.3,Win32,60
,,right,1.465999842,1,0,160,72,1,159,20,20,0,13,87,0,0,0.5,-0.5,-0.5,-0.5,-0.5,room,2020-07-29_11h48.05.112,Tymula Experiment,3.2.3,Win32,60
,,right,1.59499979,1,0,160,121,1,159,-50,-50,0,25,75,0,0,-0.5,0.5,0.5,0.5,0.5,room,2020-07-29_11h48.05.112,Tymula Experiment,3.2.3,Win32,60
,,left,2.581999779,1,0,160,147,1,159,-125,-125,0,50,50,0,0,0.5,-0.5,-0.5,-0.5,-0.5,room,2020-07-29_11h48.05.112,Tymula Experiment,3.2.3,Win32,60
,,right,5.900999784,1,0,160,3,1,159,5,5,0,50,50,0,0,0.5,-0.5,-0.5,-0.5,-0.5,room,2020-07-29_11h48.05.112,Tymula Experiment,3.2.3,Win32,60
,,left,3.36500001,1,0,160,159,1,159,-125,-125,0,13,13,0.481,74,0.5,-0.5,-0.5,-0.5,-0.5,room,2020-07-29_11h48.05.112,Tymula Experiment,3.2.3,Win32,60
,,right,1.880999804,1,0,160,104,1,159,50,50,0,13,87,0,0,0.5,-0.5,-0.5,-0.5,-0.5,room,2020-07-29_11h48.05.112,Tymula Experiment,3.2.3,Win32,60
,,right,1.362999916,1,0,160,1,1,159,5,5,0,25,75,0,0,0.5,-0.5,-0.5,-0.5,-0.5,room,2020-07-29_11h48.05.112,Tymula Experiment,3.2.3,Win32,60
,,right,1.565999985,1,0,160,20,1,159,-5,-5,0,75,25,0,0,-0.5,0.5,0.5,0.5,0.5,room,2020-07-29_11h48.05.112,Tymula Experiment,3.2.3,Win32,60
,,left,1.212999821,1,0,160,17,1,159,-5,-5,0,25,75,0,0,0.5,-0.5,-0.5,-0.5,-0.5,room,2020-07-29_11h48.05.112,Tymula Experiment,3.2.3,Win32,60
,,left,1.713999987,1,0,160,107,1,159,50,50,0,50,50,0,0,-0.5,0.5,0.5,0.5,0.5,room,2020-07-29_11h48.05.112,Tymula Experiment,3.2.3,Win32,60
,,left,2.014999866,1,0,160,61,1,159,-8,-8,0,38,38,0.156,24,0.5,-0.5,-0.5,-0.5,-0.5,room,2020-07-29_11h48.05.112,Tymula Experiment,3.2.3,Win32,60
,,left,1.332000017,1,0,160,122,1,159,-50,-50,0,38,62,0,0,0.5,-0.5,-0.5,-0.5,-0.5,room,2020-07-29_11h48.05.112,Tymula Experiment,3.2.3,Win32,60
,,left,2.198999882,1,0,160,96,1,159,50,50,0,13,87,0,0,-0.5,0.5,0.5,0.5,0.5,room,2020-07-29_11h48.05.112,Tymula Experiment,3.2.3,Win32,60
,,right,1.883999825,1,0,160,27,1,159,-5,-5,0,50,50,0,0,-0.5,0.5,0.5,0.5,0.5,room,2020-07-29_11h48.05.112,Tymula Experiment,3.2.3,Win32,60
,,left,1.046999931,1,0,160,130,1,159,125,125,0,38,62,0,0,-0.5,0.5,0.5,0.5,0.5,room,2020-07-29_11h48.05.112,Tymula Experiment,3.2.3,Win32,60
,,left,0.182999849,1,0,160,155,1,159,-125,-125,0,50,50,0,0,-0.5,0.5,0.5,0.5,0.5,room,2020-07-29_11h48.05.112,Tymula Experiment,3.2.3,Win32,60
,,left,4.330999851,1,0,160,56,1,159,-8,-8,0,13,87,0,0,0.5,-0.5,-0.5,-0.5,-0.5,room,2020-07-29_11h48.05.112,Tymula Experiment,3.2.3,Win32,60
,,right,2.877999783,1,0,160,42,1,159,8,8,0,38,62,0,0,0.5,-0.5,-0.5,-0.5,-0.5,room,2020-07-29_11h48.05.112,Tymula Experiment,3.2.3,Win32,60
,,left,1.368999958,1,0,160,127,1,159,-50,-50,0,13,13,0.481,74,0.5,-0.5,-0.5,-0.5,-0.5,room,2020-07-29_11h48.05.112,Tymula Experiment,3.2.3,Win32,60
,,right,2.231999636,1,0,160,55,1,159,-8,-8,0,13,13,0.481,74,-0.5,0.5,0.5,0.5,0.5,room,2020-07-29_11h48.05.112,Tymula Experiment,3.2.3,Win32,60
,,left,5.815999985,1,0,160,58,1,159,-8,-8,0,38,62,0,0,0.5,-0.5,-0.5,-0.5,-0.5,room,2020-07-29_11h48.05.112,Tymula Experiment,3.2.3,Win32,60
,,left,1.496999741,1,0,160,135,1,159,125,125,0,13,13,0.481,74,-0.5,0.5,0.5,0.5,0.5,room,2020-07-29_11h48.05.112,Tymula Experiment,3.2.3,Win32,60
,,left,0.977999926,1,0,160,101,1,159,50,50,0,38,38,0.156,24,-0.5,0.5,0.5,0.5,0.5,room,2020-07-29_11h48.05.112,Tymula Experiment,3.2.3,Win32,60
,,left,1.465999842,1,0,160,34,1,159,8,8,0,38,62,0,0,-0.5,0.5,0.5,0.5,0.5,room,2020-07-29_11h48.05.112,Tymula Experiment,3.2.3,Win32,60
,,right,1.217000008,1,0,160,117,1,159,-50,-50,0,38,38,0.156,24,-0.5,0.5,0.5,0.5,0.5,room,2020-07-29_11h48.05.112,Tymula Experiment,3.2.3,Win32,60
,,right,1.396999836,1,0,160,144,1,159,-125,-125,0,13,87,0,0,-0.5,0.5,0.5,0.5,0.5,room,2020-07-29_11h48.05.112,Tymula Experiment,3.2.3,Win32,60
,,left,1.046999931,1,0,160,12,1,159,5,5,0,75,25,0,0,-0.5,0.5,0.5,0.5,0.5,room,2020-07-29_11h48.05.112,Tymula Experiment,3.2.3,Win32,60
,,left,1.596999884,1,0,160,150,1,159,-125,-125,0,25,25,0.325,50,0.5,-0.5,-0.5,-0.5,-0.5,room,2020-07-29_11h48.05.112,Tymula Experiment,3.2.3,Win32,60
,,right,2.263999701,1,0,160,91,1,159,-20,-20,0,50,50,0,0,-0.5,0.5,0.5,0.5,0.5,room,2020-07-29_11h48.05.112,Tymula Experiment,3.2.3,Win32,60
,,left,1.582000017,1,0,160,110,1,159,50,50,0,25,25,0.325,50,-0.5,0.5,0.5,0.5,0.5,room,2020-07-29_11h48.05.112,Tymula Experiment,3.2.3,Win32,60
,,left,1.645999908,1,0,160,76,1,159,20,20,0,75,25,0,0,-0.5,0.5,0.5,0.5,0.5,room,2020-07-29_11h48.05.112,Tymula Experiment,3.2.3,Win32,60
,,left,1.934000015,1,0,160,86,1,159,-20,-20,0,25,25,0.325,50,0.5,-0.5,-0.5,-0.5,-0.5,room,2020-07-29_11h48.05.112,Tymula Experiment,3.2.3,Win32,60
,,left,1.412999868,1,0,160,93,1,159,-20,-20,0,38,38,0.156,24,0.5,-0.5,-0.5,-0.5,-0.5,room,2020-07-29_11h48.05.112,Tymula Experiment,3.2.3,Win32,60
,,right,0.983999729,1,0,160,38,1,159,8,8,0,25,25,0.325,50,0.5,-0.5,-0.5,-0.5,-0.5,room,2020-07-29_11h48.05.112,Tymula Experiment,3.2.3,Win32,60
,,left,1.599999666,1,0,160,103,1,159,50,50,0,13,13,0.481,74,-0.5,0.5,0.5,0.5,0.5,room,2020-07-29_11h48.05.112,Tymula Experiment,3.2.3,Win32,60
,,left,1.516999722,1,0,160,120,1,159,-50,-50,0,13,87,0,0,0.5,-0.5,-0.5,-0.5,-0.5,room,2020-07-29_11h48.05.112,Tymula Experiment,3.2.3,Win32,60
,,right,1.544999838,1,0,160,70,1,159,20,20,0,25,25,0.325,50,0.5,-0.5,-0.5,-0.5,-0.5,room,2020-07-29_11h48.05.112,Tymula Experiment,3.2.3,Win32,60
,,left,1.234999657,1,0,160,83,1,159,-20,-20,0,50,50,0,0,0.5,-0.5,-0.5,-0.5,-0.5,room,2020-07-29_11h48.05.112,Tymula Experiment,3.2.3,Win32,60
,,right,1.431999922,1,0,160,102,1,159,50,50,0,25,25,0.325,50,0.5,-0.5,-0.5,-0.5,-0.5,room,2020-07-29_11h48.05.112,Tymula Experiment,3.2.3,Win32,60
,,right,1.147999763,1,0,160,143,1,159,125,125,0,13,13,0.481,74,0.5,-0.5,-0.5,-0.5,-0.5,room,2020-07-29_11h48.05.112,Tymula Experiment,3.2.3,Win32,60
,,left,1.399999857,1,0,160,75,1,159,20,20,0,50,50,0,0,-0.5,0.5,0.5,0.5,0.5,room,2020-07-29_11h48.05.112,Tymula Experiment,3.2.3,Win32,60
,,left,1.61500001,1,0,160,125,1,159,-50,-50,0,38,38,0.156,24,0.5,-0.5,-0.5,-0.5,-0.5,room,2020-07-29_11h48.05.112,Tymula Experiment,3.2.3,Win32,60
,,left,3.430000067,1,0,160,88,1,159,-20,-20,0,13,87,0,0,0.5,-0.5,-0.5,-0.5,-0.5,room,2020-07-29_11h48.05.112,Tymula Experiment,3.2.3,Win32,60
,,left,2.215999842,1,0,160,81,1,159,-20,-20,0,25,75,0,0,0.5,-0.5,-0.5,-0.5,-0.5,room,2020-07-29_11h48.05.112,Tymula Experiment,3.2.3,Win32,60
,,left,1.485999823,1,0,160,68,1,159,20,20,0,75,25,0,0,-0.5,0.5,0.5,0.5,0.5,room,2020-07-29_11h48.05.112,Tymula Experiment,3.2.3,Win32,60
,,left,1.662999868,1,0,160,115,1,159,-50,-50,0,50,50,0,0,0.5,-0.5,-0.5,-0.5,-0.5,room,2020-07-29_11h48.05.112,Tymula Experiment,3.2.3,Win32,60
,,right,1.927999973,1,0,160,57,1,159,-8,-8,0,25,75,0,0,-0.5,0.5,0.5,0.5,0.5,room,2020-07-29_11h48.05.112,Tymula Experiment,3.2.3,Win32,60
,,left,1.348999739,1,0,160,54,1,159,-8,-8,0,25,25,0.325,50,0.5,-0.5,-0.5,-0.5,-0.5,room,2020-07-29_11h48.05.112,Tymula Experiment,3.2.3,Win32,60
,,right,1.911999941,1,0,160,21,1,159,-5,-5,0,38,38,0.156,24,-0.5,0.5,0.5,0.5,0.5,room,2020-07-29_11h48.05.112,Tymula Experiment,3.2.3,Win32,60
,,left,1.381999731,1,0,160,31,1,159,-5,-5,0,13,13,0.481,74,0.5,-0.5,-0.5,-0.5,-0.5,room,2020-07-29_11h48.05.112,Tymula Experiment,3.2.3,Win32,60
,,left,1.664999723,1,0,160,90,1,159,-20,-20,0,38,62,0,0,0.5,-0.5,-0.5,-0.5,-0.5,room,2020-07-29_11h48.05.112,Tymula Experiment,3.2.3,Win32,60
,,right,3.933999777,1,0,160,23,1,159,-5,-5,0,13,13,0.481,74,-0.5,0.5,0.5,0.5,0.5,room,2020-07-29_11h48.05.112,Tymula Experiment,3.2.3,Win32,60
,,left,1.149999857,1,0,160,98,1,159,50,50,0,38,62,0,0,-0.5,0.5,0.5,0.5,0.5,room,2020-07-29_11h48.05.112,Tymula Experiment,3.2.3,Win32,60
,,right,1.662999868,1,0,160,77,1,159,20,20,0,38,38,0.156,24,0.5,-0.5,-0.5,-0.5,-0.5,room,2020-07-29_11h48.05.112,Tymula Experiment,3.2.3,Win32,60
,,left,1.547999859,1,0,160,71,1,159,20,20,0,13,13,0.481,74,-0.5,0.5,0.5,0.5,0.5,room,2020-07-29_11h48.05.112,Tymula Experiment,3.2.3,Win32,60
,,left,2.080999851,1,0,160,157,1,159,-125,-125,0,38,38,0.156,24,0.5,-0.5,-0.5,-0.5,-0.5,room,2020-07-29_11h48.05.112,Tymula Experiment,3.2.3,Win32,60
,,right,1.831999779,1,0,160,109,1,159,50,50,0,38,38,0.156,24,0.5,-0.5,-0.5,-0.5,-0.5,room,2020-07-29_11h48.05.112,Tymula Experiment,3.2.3,Win32,60
,,left,1.497999907,1,0,160,66,1,159,20,20,0,38,62,0,0,-0.5,0.5,0.5,0.5,0.5,room,2020-07-29_11h48.05.112,Tymula Experiment,3.2.3,Win32,60
,,left,1.148999929,1,0,160,7,1,159,5,5,0,13,13,0.481,74,-0.5,0.5,0.5,0.5,0.5,room,2020-07-29_11h48.05.112,Tymula Experiment,3.2.3,Win32,60
,,left,1.332000017,1,0,160,137,1,159,125,125,0,25,75,0,0,-0.5,0.5,0.5,0.5,0.5,room,2020-07-29_11h48.05.112,Tymula Experiment,3.2.3,Win32,60
,,right,1.363999844,1,0,160,97,1,159,50,50,0,25,75,0,0,0.5,-0.5,-0.5,-0.5,-0.5,room,2020-07-29_11h48.05.112,Tymula Experiment,3.2.3,Win32,60
,,left,1.285999775,1,0,160,108,1,159,50,50,0,75,25,0,0,-0.5,0.5,0.5,0.5,0.5,room,2020-07-29_11h48.05.112,Tymula Experiment,3.2.3,Win32,60
,,left,1.182999849,1,0,160,73,1,159,20,20,0,25,75,0,0,-0.5,0.5,0.5,0.5,0.5,room,2020-07-29_11h48.05.112,Tymula Experiment,3.2.3,Win32,60
,,left,1.195999861,1,0,160,9,1,159,5,5,0,25,75,0,0,-0.5,0.5,0.5,0.5,0.5,room,2020-07-29_11h48.05.112,Tymula Experiment,3.2.3,Win32,60
,,right,1.198999882,1,0,160,52,1,159,-8,-8,0,75,25,0,0,-0.5,0.5,0.5,0.5,0.5,room,2020-07-29_11h48.05.112,Tymula Experiment,3.2.3,Win32,60
,,right,1.316999912,1,0,160,62,1,159,-8,-8,0,25,25,0.325,50,-0.5,0.5,0.5,0.5,0.5,room,2020-07-29_11h48.05.112,Tymula Experiment,3.2.3,Win32,60
,,right,1.252999783,1,0,160,146,1,159,-125,-125,0,38,62,0,0,-0.5,0.5,0.5,0.5,0.5,room,2020-07-29_11h48.05.112,Tymula Experiment,3.2.3,Win32,60
,,left,1.295999765,1,0,160,63,1,159,-8,-8,0,13,13,0.481,74,0.5,-0.5,-0.5,-0.5,-0.5,room,2020-07-29_11h48.05.112,Tymula Experiment,3.2.3,Win32,60
,,left,1.382999897,1,0,160,37,1,159,8,8,0,38,38,0.156,24,-0.5,0.5,0.5,0.5,0.5,room,2020-07-29_11h48.05.112,Tymula Experiment,3.2.3,Win32,60
,,left,2.049999714,1,0,160,51,1,159,-8,-8,0,50,50,0,0,0.5,-0.5,-0.5,-0.5,-0.5,room,2020-07-29_11h48.05.112,Tymula Experiment,3.2.3,Win32,60
,,right,1.681999922,1,0,160,114,1,159,-50,-50,0,38,62,0,0,-0.5,0.5,0.5,0.5,0.5,room,2020-07-29_11h48.05.112,Tymula Experiment,3.2.3,Win32,60
,,left,1.148999929,1,0,160,132,1,159,125,125,0,75,25,0,0,-0.5,0.5,0.5,0.5,0.5,room,2020-07-29_11h48.05.112,Tymula Experiment,3.2.3,Win32,60
,,left,1,1,0,160,100,1,159,50,50,0,75,25,0,0,-0.5,0.5,0.5,0.5,0.5,room,2020-07-29_11h48.05.112,Tymula Experiment,3.2.3,Win32,60
,,left,1.346999645,1,0,160,5,1,159,5,5,0,38,38,0.156,24,-0.5,0.5,0.5,0.5,0.5,room,2020-07-29_11h48.05.112,Tymula Experiment,3.2.3,Win32,60
