key_resp_2.keys,key_resp_2.rt,key_resp.keys,key_resp.rt,trials.thisRepN,trials.thisTrialN,trials.thisN,trials.thisIndex,trials.ran,trials.order,Sure,OptionOne,OptionTwo,Risk,Risk2,AmbiguityBarH,Ambiguity,SureXPos,RiskXPos,OptionOneXPos,OptionTwoXPos,RiskX,participant,date,expName,psychopyVersion,OS,frameRate
space,12.27600002,right,10.73700023,1,0,160,11,1,159,5,5,0,50,50,0,0,-0.5,0.5,0.5,0.5,0.5,work,2020-07-04_14h26.04.152,Tymula Experiment,3.2.3,Win32,60
,,left,21.55800033,1,0,160,85,1,159,-20,-20,0,38,38,0.156,24,-0.5,0.5,0.5,0.5,0.5,work,2020-07-04_14h26.04.152,Tymula Experiment,3.2.3,Win32,60
,,left,25.74000025,1,0,160,127,1,159,-50,-50,0,13,13,0.481,74,0.5,-0.5,-0.5,-0.5,-0.5,work,2020-07-04_14h26.04.152,Tymula Experiment,3.2.3,Win32,60
,,left,37.43600011,1,0,160,139,1,159,125,125,0,50,50,0,0,-0.5,0.5,0.5,0.5,0.5,work,2020-07-04_14h26.04.152,Tymula Experiment,3.2.3,Win32,60
,,left,62.40300012,1,0,160,9,1,159,5,5,0,25,75,0,0,-0.5,0.5,0.5,0.5,0.5,work,2020-07-04_14h26.04.152,Tymula Experiment,3.2.3,Win32,60
,,right,12.21000028,1,0,160,99,1,159,50,50,0,50,50,0,0,0.5,-0.5,-0.5,-0.5,-0.5,work,2020-07-04_14h26.04.152,Tymula Experiment,3.2.3,Win32,60
,,left,11.82800007,1,0,160,49,1,159,-8,-8,0,25,75,0,0,0.5,-0.5,-0.5,-0.5,-0.5,work,2020-07-04_14h26.04.152,Tymula Experiment,3.2.3,Win32,60
,,right,25.94900012,1,0,160,48,1,159,-8,-8,0,13,87,0,0,-0.5,0.5,0.5,0.5,0.5,work,2020-07-04_14h26.04.152,Tymula Experiment,3.2.3,Win32,60
,,right,12.17900014,1,0,160,94,1,159,-20,-20,0,25,25,0.325,50,-0.5,0.5,0.5,0.5,0.5,work,2020-07-04_14h26.04.152,Tymula Experiment,3.2.3,Win32,60
,,left,6.39800024,1,0,160,115,1,159,-50,-50,0,50,50,0,0,0.5,-0.5,-0.5,-0.5,-0.5,work,2020-07-04_14h26.04.152,Tymula Experiment,3.2.3,Win32,60
,,left,7.056000233,1,0,160,41,1,159,8,8,0,25,75,0,0,-0.5,0.5,0.5,0.5,0.5,work,2020-07-04_14h26.04.152,Tymula Experiment,3.2.3,Win32,60
,,right,11.53500032,1,0,160,70,1,159,20,20,0,25,25,0.325,50,0.5,-0.5,-0.5,-0.5,-0.5,work,2020-07-04_14h26.04.152,Tymula Experiment,3.2.3,Win32,60
,,left,8.20600009,1,0,160,152,1,159,-125,-125,0,13,87,0,0,0.5,-0.5,-0.5,-0.5,-0.5,work,2020-07-04_14h26.04.152,Tymula Experiment,3.2.3,Win32,60
,,left,11.829,1,0,160,159,1,159,-125,-125,0,13,13,0.481,74,0.5,-0.5,-0.5,-0.5,-0.5,work,2020-07-04_14h26.04.152,Tymula Experiment,3.2.3,Win32,60
,,right,10.88300014,1,0,160,25,1,159,-5,-5,0,25,75,0,0,-0.5,0.5,0.5,0.5,0.5,work,2020-07-04_14h26.04.152,Tymula Experiment,3.2.3,Win32,60
,,left,15.99900031,1,0,160,17,1,159,-5,-5,0,25,75,0,0,0.5,-0.5,-0.5,-0.5,-0.5,work,2020-07-04_14h26.04.152,Tymula Experiment,3.2.3,Win32,60
,,right,14.9000001,1,0,160,42,1,159,8,8,0,38,62,0,0,0.5,-0.5,-0.5,-0.5,-0.5,work,2020-07-04_14h26.04.152,Tymula Experiment,3.2.3,Win32,60
,,left,16.17400026,1,0,160,83,1,159,-20,-20,0,50,50,0,0,0.5,-0.5,-0.5,-0.5,-0.5,work,2020-07-04_14h26.04.152,Tymula Experiment,3.2.3,Win32,60
,,left,11.39500022,1,0,160,66,1,159,20,20,0,38,62,0,0,-0.5,0.5,0.5,0.5,0.5,work,2020-07-04_14h26.04.152,Tymula Experiment,3.2.3,Win32,60
,,right,25.17000008,1,0,160,60,1,159,-8,-8,0,75,25,0,0,-0.5,0.5,0.5,0.5,0.5,work,2020-07-04_14h26.04.152,Tymula Experiment,3.2.3,Win32,60
,,left,14.66800022,1,0,160,120,1,159,-50,-50,0,13,87,0,0,0.5,-0.5,-0.5,-0.5,-0.5,work,2020-07-04_14h26.04.152,Tymula Experiment,3.2.3,Win32,60
,,right,12.62900019,1,0,160,112,1,159,-50,-50,0,13,87,0,0,-0.5,0.5,0.5,0.5,0.5,work,2020-07-04_14h26.04.152,Tymula Experiment,3.2.3,Win32,60
,,left,8.054000139,1,0,160,98,1,159,50,50,0,38,62,0,0,-0.5,0.5,0.5,0.5,0.5,work,2020-07-04_14h26.04.152,Tymula Experiment,3.2.3,Win32,60
,,right,17.49300003,1,0,160,45,1,159,8,8,0,38,38,0.156,24,0.5,-0.5,-0.5,-0.5,-0.5,work,2020-07-04_14h26.04.152,Tymula Experiment,3.2.3,Win32,60
,,right,27.32800031,1,0,160,82,1,159,-20,-20,0,38,62,0,0,-0.5,0.5,0.5,0.5,0.5,work,2020-07-04_14h26.04.152,Tymula Experiment,3.2.3,Win32,60
,,left,9.481000185,1,0,160,69,1,159,20,20,0,38,38,0.156,24,-0.5,0.5,0.5,0.5,0.5,work,2020-07-04_14h26.04.152,Tymula Experiment,3.2.3,Win32,60
,,right,15.84700012,1,0,160,84,1,159,-20,-20,0,75,25,0,0,-0.5,0.5,0.5,0.5,0.5,work,2020-07-04_14h26.04.152,Tymula Experiment,3.2.3,Win32,60
,,left,14.43200016,1,0,160,86,1,159,-20,-20,0,25,25,0.325,50,0.5,-0.5,-0.5,-0.5,-0.5,work,2020-07-04_14h26.04.152,Tymula Experiment,3.2.3,Win32,60
,,right,8.88100028,1,0,160,18,1,159,-5,-5,0,38,62,0,0,-0.5,0.5,0.5,0.5,0.5,work,2020-07-04_14h26.04.152,Tymula Experiment,3.2.3,Win32,60
,,right,11.5400002,1,0,160,65,1,159,20,20,0,25,75,0,0,0.5,-0.5,-0.5,-0.5,-0.5,work,2020-07-04_14h26.04.152,Tymula Experiment,3.2.3,Win32,60
,,right,9.568000317,1,0,160,6,1,159,5,5,0,25,25,0.325,50,0.5,-0.5,-0.5,-0.5,-0.5,work,2020-07-04_14h26.04.152,Tymula Experiment,3.2.3,Win32,60
,,right,11.44300008,1,0,160,59,1,159,-8,-8,0,50,50,0,0,-0.5,0.5,0.5,0.5,0.5,work,2020-07-04_14h26.04.152,Tymula Experiment,3.2.3,Win32,60
,,left,16.56400037,1,0,160,157,1,159,-125,-125,0,38,38,0.156,24,0.5,-0.5,-0.5,-0.5,-0.5,work,2020-07-04_14h26.04.152,Tymula Experiment,3.2.3,Win32,60
,,left,8.425000191,1,0,160,22,1,159,-5,-5,0,25,25,0.325,50,0.5,-0.5,-0.5,-0.5,-0.5,work,2020-07-04_14h26.04.152,Tymula Experiment,3.2.3,Win32,60
,,left,10.95900011,1,0,160,29,1,159,-5,-5,0,38,38,0.156,24,0.5,-0.5,-0.5,-0.5,-0.5,work,2020-07-04_14h26.04.152,Tymula Experiment,3.2.3,Win32,60
,,right,15.53300023,1,0,160,89,1,159,-20,-20,0,25,75,0,0,-0.5,0.5,0.5,0.5,0.5,work,2020-07-04_14h26.04.152,Tymula Experiment,3.2.3,Win32,60
,,right,6.52699995,1,0,160,116,1,159,-50,-50,0,75,25,0,0,-0.5,0.5,0.5,0.5,0.5,work,2020-07-04_14h26.04.152,Tymula Experiment,3.2.3,Win32,60
,,right,13.97399998,1,0,160,33,1,159,8,8,0,25,75,0,0,0.5,-0.5,-0.5,-0.5,-0.5,work,2020-07-04_14h26.04.152,Tymula Experiment,3.2.3,Win32,60
,,left,7.99000001,1,0,160,76,1,159,20,20,0,75,25,0,0,-0.5,0.5,0.5,0.5,0.5,work,2020-07-04_14h26.04.152,Tymula Experiment,3.2.3,Win32,60
,,left,16.23400021,1,0,160,26,1,159,-5,-5,0,38,62,0,0,0.5,-0.5,-0.5,-0.5,-0.5,work,2020-07-04_14h26.04.152,Tymula Experiment,3.2.3,Win32,60
,,left,10.03600025,1,0,160,4,1,159,5,5,0,75,25,0,0,-0.5,0.5,0.5,0.5,0.5,work,2020-07-04_14h26.04.152,Tymula Experiment,3.2.3,Win32,60
,,right,9.887000322,1,0,160,72,1,159,20,20,0,13,87,0,0,0.5,-0.5,-0.5,-0.5,-0.5,work,2020-07-04_14h26.04.152,Tymula Experiment,3.2.3,Win32,60
,,left,5.903000116,1,0,160,34,1,159,8,8,0,38,62,0,0,-0.5,0.5,0.5,0.5,0.5,work,2020-07-04_14h26.04.152,Tymula Experiment,3.2.3,Win32,60
,,right,22.1960001,1,0,160,87,1,159,-20,-20,0,13,13,0.481,74,-0.5,0.5,0.5,0.5,0.5,work,2020-07-04_14h26.04.152,Tymula Experiment,3.2.3,Win32,60
,,right,5.85800004,1,0,160,144,1,159,-125,-125,0,13,87,0,0,-0.5,0.5,0.5,0.5,0.5,work,2020-07-04_14h26.04.152,Tymula Experiment,3.2.3,Win32,60
,,left,6.765000105,1,0,160,135,1,159,125,125,0,13,13,0.481,74,-0.5,0.5,0.5,0.5,0.5,work,2020-07-04_14h26.04.152,Tymula Experiment,3.2.3,Win32,60
,,right,11.85100007,1,0,160,114,1,159,-50,-50,0,38,62,0,0,-0.5,0.5,0.5,0.5,0.5,work,2020-07-04_14h26.04.152,Tymula Experiment,3.2.3,Win32,60
,,left,13.9400003,1,0,160,36,1,159,8,8,0,75,25,0,0,-0.5,0.5,0.5,0.5,0.5,work,2020-07-04_14h26.04.152,Tymula Experiment,3.2.3,Win32,60
,,left,13.53900027,1,0,160,56,1,159,-8,-8,0,13,87,0,0,0.5,-0.5,-0.5,-0.5,-0.5,work,2020-07-04_14h26.04.152,Tymula Experiment,3.2.3,Win32,60
,,right,10.84600019,1,0,160,149,1,159,-125,-125,0,38,38,0.156,24,-0.5,0.5,0.5,0.5,0.5,work,2020-07-04_14h26.04.152,Tymula Experiment,3.2.3,Win32,60
,,left,8.335999966,1,0,160,71,1,159,20,20,0,13,13,0.481,74,-0.5,0.5,0.5,0.5,0.5,work,2020-07-04_14h26.04.152,Tymula Experiment,3.2.3,Win32,60
,,left,12.04900026,1,0,160,73,1,159,20,20,0,25,75,0,0,-0.5,0.5,0.5,0.5,0.5,work,2020-07-04_14h26.04.152,Tymula Experiment,3.2.3,Win32,60
,,right,19.46900034,1,0,160,53,1,159,-8,-8,0,38,38,0.156,24,-0.5,0.5,0.5,0.5,0.5,work,2020-07-04_14h26.04.152,Tymula Experiment,3.2.3,Win32,60
,,left,6.241000175,1,0,160,142,1,159,125,125,0,25,25,0.325,50,-0.5,0.5,0.5,0.5,0.5,work,2020-07-04_14h26.04.152,Tymula Experiment,3.2.3,Win32,60
,,right,9.67200017,1,0,160,155,1,159,-125,-125,0,50,50,0,0,-0.5,0.5,0.5,0.5,0.5,work,2020-07-04_14h26.04.152,Tymula Experiment,3.2.3,Win32,60
,,left,9.092000246,1,0,160,7,1,159,5,5,0,13,13,0.481,74,-0.5,0.5,0.5,0.5,0.5,work,2020-07-04_14h26.04.152,Tymula Experiment,3.2.3,Win32,60
,,right,12.05100036,1,0,160,79,1,159,20,20,0,13,13,0.481,74,0.5,-0.5,-0.5,-0.5,-0.5,work,2020-07-04_14h26.04.152,Tymula Experiment,3.2.3,Win32,60
,,left,9.550000191,1,0,160,110,1,159,50,50,0,25,25,0.325,50,-0.5,0.5,0.5,0.5,0.5,work,2020-07-04_14h26.04.152,Tymula Experiment,3.2.3,Win32,60
,,right,13.66100025,1,0,160,55,1,159,-8,-8,0,13,13,0.481,74,-0.5,0.5,0.5,0.5,0.5,work,2020-07-04_14h26.04.152,Tymula Experiment,3.2.3,Win32,60
,,left,5.940000057,1,0,160,95,1,159,-20,-20,0,13,13,0.481,74,0.5,-0.5,-0.5,-0.5,-0.5,work,2020-07-04_14h26.04.152,Tymula Experiment,3.2.3,Win32,60
,,right,10.62800026,1,0,160,92,1,159,-20,-20,0,75,25,0,0,-0.5,0.5,0.5,0.5,0.5,work,2020-07-04_14h26.04.152,Tymula Experiment,3.2.3,Win32,60
,,right,14.41700006,1,0,160,134,1,159,125,125,0,25,25,0.325,50,0.5,-0.5,-0.5,-0.5,-0.5,work,2020-07-04_14h26.04.152,Tymula Experiment,3.2.3,Win32,60
,,left,4.169000387,1,0,160,96,1,159,50,50,0,13,87,0,0,-0.5,0.5,0.5,0.5,0.5,work,2020-07-04_14h26.04.152,Tymula Experiment,3.2.3,Win32,60
,,left,7.619000196,1,0,160,100,1,159,50,50,0,75,25,0,0,-0.5,0.5,0.5,0.5,0.5,work,2020-07-04_14h26.04.152,Tymula Experiment,3.2.3,Win32,60
,,right,7.318000078,1,0,160,136,1,159,125,125,0,13,87,0,0,0.5,-0.5,-0.5,-0.5,-0.5,work,2020-07-04_14h26.04.152,Tymula Experiment,3.2.3,Win32,60
,,left,13.5400002,1,0,160,154,1,159,-125,-125,0,38,62,0,0,0.5,-0.5,-0.5,-0.5,-0.5,work,2020-07-04_14h26.04.152,Tymula Experiment,3.2.3,Win32,60
,,right,7.73900032,1,0,160,67,1,159,20,20,0,50,50,0,0,0.5,-0.5,-0.5,-0.5,-0.5,work,2020-07-04_14h26.04.152,Tymula Experiment,3.2.3,Win32,60
,,left,7.312000275,1,0,160,58,1,159,-8,-8,0,38,62,0,0,0.5,-0.5,-0.5,-0.5,-0.5,work,2020-07-04_14h26.04.152,Tymula Experiment,3.2.3,Win32,60
,,right,9.567000151,1,0,160,57,1,159,-8,-8,0,25,75,0,0,-0.5,0.5,0.5,0.5,0.5,work,2020-07-04_14h26.04.152,Tymula Experiment,3.2.3,Win32,60
,,right,5.496999979,1,0,160,97,1,159,50,50,0,25,75,0,0,0.5,-0.5,-0.5,-0.5,-0.5,work,2020-07-04_14h26.04.152,Tymula Experiment,3.2.3,Win32,60
,,left,6.532000303,1,0,160,46,1,159,8,8,0,25,25,0.325,50,-0.5,0.5,0.5,0.5,0.5,work,2020-07-04_14h26.04.152,Tymula Experiment,3.2.3,Win32,60
,,left,9.356000185,1,0,160,93,1,159,-20,-20,0,38,38,0.156,24,0.5,-0.5,-0.5,-0.5,-0.5,work,2020-07-04_14h26.04.152,Tymula Experiment,3.2.3,Win32,60
,,right,10.60599995,1,0,160,123,1,159,-50,-50,0,50,50,0,0,-0.5,0.5,0.5,0.5,0.5,work,2020-07-04_14h26.04.152,Tymula Experiment,3.2.3,Win32,60
,,left,7.226000071,1,0,160,105,1,159,50,50,0,25,75,0,0,-0.5,0.5,0.5,0.5,0.5,work,2020-07-04_14h26.04.152,Tymula Experiment,3.2.3,Win32,60
,,right,5.333000183,1,0,160,129,1,159,125,125,0,25,75,0,0,0.5,-0.5,-0.5,-0.5,-0.5,work,2020-07-04_14h26.04.152,Tymula Experiment,3.2.3,Win32,60
,,left,6.268000126,1,0,160,81,1,159,-20,-20,0,25,75,0,0,0.5,-0.5,-0.5,-0.5,-0.5,work,2020-07-04_14h26.04.152,Tymula Experiment,3.2.3,Win32,60
,,left,6.521000147,1,0,160,68,1,159,20,20,0,75,25,0,0,-0.5,0.5,0.5,0.5,0.5,work,2020-07-04_14h26.04.152,Tymula Experiment,3.2.3,Win32,60
,,right,3.340000153,1,0,160,111,1,159,50,50,0,13,13,0.481,74,0.5,-0.5,-0.5,-0.5,-0.5,work,2020-07-04_14h26.04.152,Tymula Experiment,3.2.3,Win32,60
,,left,3.534000158,1,0,160,108,1,159,50,50,0,75,25,0,0,-0.5,0.5,0.5,0.5,0.5,work,2020-07-04_14h26.04.152,Tymula Experiment,3.2.3,Win32,60
,,left,19.98900032,1,0,160,118,1,159,-50,-50,0,25,25,0.325,50,0.5,-0.5,-0.5,-0.5,-0.5,work,2020-07-04_14h26.04.152,Tymula Experiment,3.2.3,Win32,60
,,right,6.111000061,1,0,160,153,1,159,-125,-125,0,25,75,0,0,-0.5,0.5,0.5,0.5,0.5,work,2020-07-04_14h26.04.152,Tymula Experiment,3.2.3,Win32,60
,,right,17.98900008,1,0,160,23,1,159,-5,-5,0,13,13,0.481,74,-0.5,0.5,0.5,0.5,0.5,work,2020-07-04_14h26.04.152,Tymula Experiment,3.2.3,Win32,60
,,right,5.795000076,1,0,160,143,1,159,125,125,0,13,13,0.481,74,0.5,-0.5,-0.5,-0.5,-0.5,work,2020-07-04_14h26.04.152,Tymula Experiment,3.2.3,Win32,60
,,right,9.830000162,1,0,160,62,1,159,-8,-8,0,25,25,0.325,50,-0.5,0.5,0.5,0.5,0.5,work,2020-07-04_14h26.04.152,Tymula Experiment,3.2.3,Win32,60
,,right,6.501000166,1,0,160,10,1,159,5,5,0,38,62,0,0,0.5,-0.5,-0.5,-0.5,-0.5,work,2020-07-04_14h26.04.152,Tymula Experiment,3.2.3,Win32,60
,,right,9.511000156,1,0,160,158,1,159,-125,-125,0,25,25,0.325,50,-0.5,0.5,0.5,0.5,0.5,work,2020-07-04_14h26.04.152,Tymula Experiment,3.2.3,Win32,60
,,right,7.928000212,1,0,160,124,1,159,-50,-50,0,75,25,0,0,-0.5,0.5,0.5,0.5,0.5,work,2020-07-04_14h26.04.152,Tymula Experiment,3.2.3,Win32,60
,,right,7.359000206,1,0,160,126,1,159,-50,-50,0,25,25,0.325,50,-0.5,0.5,0.5,0.5,0.5,work,2020-07-04_14h26.04.152,Tymula Experiment,3.2.3,Win32,60
,,left,6.309000254,1,0,160,0,1,159,5,5,0,13,87,0,0,-0.5,0.5,0.5,0.5,0.5,work,2020-07-04_14h26.04.152,Tymula Experiment,3.2.3,Win32,60
,,right,9.292000294,1,0,160,27,1,159,-5,-5,0,50,50,0,0,-0.5,0.5,0.5,0.5,0.5,work,2020-07-04_14h26.04.152,Tymula Experiment,3.2.3,Win32,60
,,right,6.025000095,1,0,160,151,1,159,-125,-125,0,13,13,0.481,74,-0.5,0.5,0.5,0.5,0.5,work,2020-07-04_14h26.04.152,Tymula Experiment,3.2.3,Win32,60
,,right,5.358000278,1,0,160,8,1,159,5,5,0,13,87,0,0,0.5,-0.5,-0.5,-0.5,-0.5,work,2020-07-04_14h26.04.152,Tymula Experiment,3.2.3,Win32,60
,,left,4.503000259,1,0,160,101,1,159,50,50,0,38,38,0.156,24,-0.5,0.5,0.5,0.5,0.5,work,2020-07-04_14h26.04.152,Tymula Experiment,3.2.3,Win32,60
,,left,10.13800001,1,0,160,61,1,159,-8,-8,0,38,38,0.156,24,0.5,-0.5,-0.5,-0.5,-0.5,work,2020-07-04_14h26.04.152,Tymula Experiment,3.2.3,Win32,60
,,right,4.688000202,1,0,160,91,1,159,-20,-20,0,50,50,0,0,-0.5,0.5,0.5,0.5,0.5,work,2020-07-04_14h26.04.152,Tymula Experiment,3.2.3,Win32,60
,,left,4.158000231,1,0,160,64,1,159,20,20,0,13,87,0,0,-0.5,0.5,0.5,0.5,0.5,work,2020-07-04_14h26.04.152,Tymula Experiment,3.2.3,Win32,60
,,right,4.335000038,1,0,160,109,1,159,50,50,0,38,38,0.156,24,0.5,-0.5,-0.5,-0.5,-0.5,work,2020-07-04_14h26.04.152,Tymula Experiment,3.2.3,Win32,60
,,right,3.235000134,1,0,160,40,1,159,8,8,0,13,87,0,0,0.5,-0.5,-0.5,-0.5,-0.5,work,2020-07-04_14h26.04.152,Tymula Experiment,3.2.3,Win32,60
,,left,6.779000044,1,0,160,63,1,159,-8,-8,0,13,13,0.481,74,0.5,-0.5,-0.5,-0.5,-0.5,work,2020-07-04_14h26.04.152,Tymula Experiment,3.2.3,Win32,60
,,left,6.356000185,1,0,160,90,1,159,-20,-20,0,38,62,0,0,0.5,-0.5,-0.5,-0.5,-0.5,work,2020-07-04_14h26.04.152,Tymula Experiment,3.2.3,Win32,60
,,left,5.198000193,1,0,160,2,1,159,5,5,0,38,62,0,0,-0.5,0.5,0.5,0.5,0.5,work,2020-07-04_14h26.04.152,Tymula Experiment,3.2.3,Win32,60
,,right,13.20900011,1,0,160,35,1,159,8,8,0,50,50,0,0,0.5,-0.5,-0.5,-0.5,-0.5,work,2020-07-04_14h26.04.152,Tymula Experiment,3.2.3,Win32,60
,,right,4.234000206,1,0,160,102,1,159,50,50,0,25,25,0.325,50,0.5,-0.5,-0.5,-0.5,-0.5,work,2020-07-04_14h26.04.152,Tymula Experiment,3.2.3,Win32,60
,,left,6.017000198,1,0,160,44,1,159,8,8,0,75,25,0,0,-0.5,0.5,0.5,0.5,0.5,work,2020-07-04_14h26.04.152,Tymula Experiment,3.2.3,Win32,60
,,left,6.626000166,1,0,160,75,1,159,20,20,0,50,50,0,0,-0.5,0.5,0.5,0.5,0.5,work,2020-07-04_14h26.04.152,Tymula Experiment,3.2.3,Win32,60
,,right,5.515000343,1,0,160,74,1,159,20,20,0,38,62,0,0,0.5,-0.5,-0.5,-0.5,-0.5,work,2020-07-04_14h26.04.152,Tymula Experiment,3.2.3,Win32,60
,,left,3.875,1,0,160,39,1,159,8,8,0,13,13,0.481,74,-0.5,0.5,0.5,0.5,0.5,work,2020-07-04_14h26.04.152,Tymula Experiment,3.2.3,Win32,60
,,left,3.599000216,1,0,160,133,1,159,125,125,0,38,38,0.156,24,-0.5,0.5,0.5,0.5,0.5,work,2020-07-04_14h26.04.152,Tymula Experiment,3.2.3,Win32,60
,,left,4.940000296,1,0,160,147,1,159,-125,-125,0,50,50,0,0,0.5,-0.5,-0.5,-0.5,-0.5,work,2020-07-04_14h26.04.152,Tymula Experiment,3.2.3,Win32,60
,,left,9.677000046,1,0,160,37,1,159,8,8,0,38,38,0.156,24,-0.5,0.5,0.5,0.5,0.5,work,2020-07-04_14h26.04.152,Tymula Experiment,3.2.3,Win32,60
,,left,6.039000273,1,0,160,5,1,159,5,5,0,38,38,0.156,24,-0.5,0.5,0.5,0.5,0.5,work,2020-07-04_14h26.04.152,Tymula Experiment,3.2.3,Win32,60
,,left,4.391000271,1,0,160,14,1,159,5,5,0,25,25,0.325,50,-0.5,0.5,0.5,0.5,0.5,work,2020-07-04_14h26.04.152,Tymula Experiment,3.2.3,Win32,60
,,right,7.097000122,1,0,160,117,1,159,-50,-50,0,38,38,0.156,24,-0.5,0.5,0.5,0.5,0.5,work,2020-07-04_14h26.04.152,Tymula Experiment,3.2.3,Win32,60
,,right,4.400000095,1,0,160,3,1,159,5,5,0,50,50,0,0,0.5,-0.5,-0.5,-0.5,-0.5,work,2020-07-04_14h26.04.152,Tymula Experiment,3.2.3,Win32,60
,,left,3.868000031,1,0,160,140,1,159,125,125,0,75,25,0,0,-0.5,0.5,0.5,0.5,0.5,work,2020-07-04_14h26.04.152,Tymula Experiment,3.2.3,Win32,60
,,right,3.6650002,1,0,160,38,1,159,8,8,0,25,25,0.325,50,0.5,-0.5,-0.5,-0.5,-0.5,work,2020-07-04_14h26.04.152,Tymula Experiment,3.2.3,Win32,60
,,left,9.964000225,1,0,160,12,1,159,5,5,0,75,25,0,0,-0.5,0.5,0.5,0.5,0.5,work,2020-07-04_14h26.04.152,Tymula Experiment,3.2.3,Win32,60
,,right,3.651000023,1,0,160,21,1,159,-5,-5,0,38,38,0.156,24,-0.5,0.5,0.5,0.5,0.5,work,2020-07-04_14h26.04.152,Tymula Experiment,3.2.3,Win32,60
,,left,9.163000107,1,0,160,103,1,159,50,50,0,13,13,0.481,74,-0.5,0.5,0.5,0.5,0.5,work,2020-07-04_14h26.04.152,Tymula Experiment,3.2.3,Win32,60
,,right,4.236000061,1,0,160,77,1,159,20,20,0,38,38,0.156,24,0.5,-0.5,-0.5,-0.5,-0.5,work,2020-07-04_14h26.04.152,Tymula Experiment,3.2.3,Win32,60
,,left,4.33100009,1,0,160,150,1,159,-125,-125,0,25,25,0.325,50,0.5,-0.5,-0.5,-0.5,-0.5,work,2020-07-04_14h26.04.152,Tymula Experiment,3.2.3,Win32,60
,,left,3.732000113,1,0,160,128,1,159,125,125,0,13,87,0,0,-0.5,0.5,0.5,0.5,0.5,work,2020-07-04_14h26.04.152,Tymula Experiment,3.2.3,Win32,60
,,left,5.448000193,1,0,160,88,1,159,-20,-20,0,13,87,0,0,0.5,-0.5,-0.5,-0.5,-0.5,work,2020-07-04_14h26.04.152,Tymula Experiment,3.2.3,Win32,60
,,left,4.601999998,1,0,160,32,1,159,8,8,0,13,87,0,0,-0.5,0.5,0.5,0.5,0.5,work,2020-07-04_14h26.04.152,Tymula Experiment,3.2.3,Win32,60
,,left,4.978000164,1,0,160,130,1,159,125,125,0,38,62,0,0,-0.5,0.5,0.5,0.5,0.5,work,2020-07-04_14h26.04.152,Tymula Experiment,3.2.3,Win32,60
,,right,5.825000286,1,0,160,80,1,159,-20,-20,0,13,87,0,0,-0.5,0.5,0.5,0.5,0.5,work,2020-07-04_14h26.04.152,Tymula Experiment,3.2.3,Win32,60
,,left,5.556000233,1,0,160,31,1,159,-5,-5,0,13,13,0.481,74,0.5,-0.5,-0.5,-0.5,-0.5,work,2020-07-04_14h26.04.152,Tymula Experiment,3.2.3,Win32,60
,,right,7.679000139,1,0,160,50,1,159,-8,-8,0,38,62,0,0,-0.5,0.5,0.5,0.5,0.5,work,2020-07-04_14h26.04.152,Tymula Experiment,3.2.3,Win32,60
,,right,4.060000181,1,0,160,148,1,159,-125,-125,0,75,25,0,0,-0.5,0.5,0.5,0.5,0.5,work,2020-07-04_14h26.04.152,Tymula Experiment,3.2.3,Win32,60
,,right,4.755000353,1,0,160,104,1,159,50,50,0,13,87,0,0,0.5,-0.5,-0.5,-0.5,-0.5,work,2020-07-04_14h26.04.152,Tymula Experiment,3.2.3,Win32,60
,,right,2.808000088,1,0,160,138,1,159,125,125,0,38,62,0,0,0.5,-0.5,-0.5,-0.5,-0.5,work,2020-07-04_14h26.04.152,Tymula Experiment,3.2.3,Win32,60
,,left,6.413000345,1,0,160,51,1,159,-8,-8,0,50,50,0,0,0.5,-0.5,-0.5,-0.5,-0.5,work,2020-07-04_14h26.04.152,Tymula Experiment,3.2.3,Win32,60
,,left,7.971000195,1,0,160,43,1,159,8,8,0,50,50,0,0,-0.5,0.5,0.5,0.5,0.5,work,2020-07-04_14h26.04.152,Tymula Experiment,3.2.3,Win32,60
,,right,3.016000032,1,0,160,141,1,159,125,125,0,38,38,0.156,24,0.5,-0.5,-0.5,-0.5,-0.5,work,2020-07-04_14h26.04.152,Tymula Experiment,3.2.3,Win32,60
,,left,3.112000227,1,0,160,113,1,159,-50,-50,0,25,75,0,0,0.5,-0.5,-0.5,-0.5,-0.5,work,2020-07-04_14h26.04.152,Tymula Experiment,3.2.3,Win32,60
,,right,4.897000074,1,0,160,52,1,159,-8,-8,0,75,25,0,0,-0.5,0.5,0.5,0.5,0.5,work,2020-07-04_14h26.04.152,Tymula Experiment,3.2.3,Win32,60
,,left,2.602000237,1,0,160,125,1,159,-50,-50,0,38,38,0.156,24,0.5,-0.5,-0.5,-0.5,-0.5,work,2020-07-04_14h26.04.152,Tymula Experiment,3.2.3,Win32,60
,,left,2.549000263,1,0,160,78,1,159,20,20,0,25,25,0.325,50,-0.5,0.5,0.5,0.5,0.5,work,2020-07-04_14h26.04.152,Tymula Experiment,3.2.3,Win32,60
,,left,9.810000181,1,0,160,24,1,159,-5,-5,0,13,87,0,0,0.5,-0.5,-0.5,-0.5,-0.5,work,2020-07-04_14h26.04.152,Tymula Experiment,3.2.3,Win32,60
,,right,5.661000013,1,0,160,30,1,159,-5,-5,0,25,25,0.325,50,-0.5,0.5,0.5,0.5,0.5,work,2020-07-04_14h26.04.152,Tymula Experiment,3.2.3,Win32,60
,,right,5.537000179,1,0,160,13,1,159,5,5,0,38,38,0.156,24,0.5,-0.5,-0.5,-0.5,-0.5,work,2020-07-04_14h26.04.152,Tymula Experiment,3.2.3,Win32,60
,,right,4.556000233,1,0,160,131,1,159,125,125,0,50,50,0,0,0.5,-0.5,-0.5,-0.5,-0.5,work,2020-07-04_14h26.04.152,Tymula Experiment,3.2.3,Win32,60
,,right,4.631999969,1,0,160,15,1,159,5,5,0,13,13,0.481,74,0.5,-0.5,-0.5,-0.5,-0.5,work,2020-07-04_14h26.04.152,Tymula Experiment,3.2.3,Win32,60
,,left,5.504000187,1,0,160,54,1,159,-8,-8,0,25,25,0.325,50,0.5,-0.5,-0.5,-0.5,-0.5,work,2020-07-04_14h26.04.152,Tymula Experiment,3.2.3,Win32,60
,,right,3.053000212,1,0,160,1,1,159,5,5,0,25,75,0,0,0.5,-0.5,-0.5,-0.5,-0.5,work,2020-07-04_14h26.04.152,Tymula Experiment,3.2.3,Win32,60
,,right,8.294000149,1,0,160,146,1,159,-125,-125,0,38,62,0,0,-0.5,0.5,0.5,0.5,0.5,work,2020-07-04_14h26.04.152,Tymula Experiment,3.2.3,Win32,60
,,right,7.517000198,1,0,160,119,1,159,-50,-50,0,13,13,0.481,74,-0.5,0.5,0.5,0.5,0.5,work,2020-07-04_14h26.04.152,Tymula Experiment,3.2.3,Win32,60
,,right,5.357000351,1,0,160,121,1,159,-50,-50,0,25,75,0,0,-0.5,0.5,0.5,0.5,0.5,work,2020-07-04_14h26.04.152,Tymula Experiment,3.2.3,Win32,60
,,left,13.52000022,1,0,160,122,1,159,-50,-50,0,38,62,0,0,0.5,-0.5,-0.5,-0.5,-0.5,work,2020-07-04_14h26.04.152,Tymula Experiment,3.2.3,Win32,60
,,left,4.766000032,1,0,160,107,1,159,50,50,0,50,50,0,0,-0.5,0.5,0.5,0.5,0.5,work,2020-07-04_14h26.04.152,Tymula Experiment,3.2.3,Win32,60
,,left,5.924000025,1,0,160,19,1,159,-5,-5,0,50,50,0,0,0.5,-0.5,-0.5,-0.5,-0.5,work,2020-07-04_14h26.04.152,Tymula Experiment,3.2.3,Win32,60
,,right,5.999000072,1,0,160,20,1,159,-5,-5,0,75,25,0,0,-0.5,0.5,0.5,0.5,0.5,work,2020-07-04_14h26.04.152,Tymula Experiment,3.2.3,Win32,60
,,left,2.274000168,1,0,160,132,1,159,125,125,0,75,25,0,0,-0.5,0.5,0.5,0.5,0.5,work,2020-07-04_14h26.04.152,Tymula Experiment,3.2.3,Win32,60
,,right,3.190999985,1,0,160,16,1,159,-5,-5,0,13,87,0,0,-0.5,0.5,0.5,0.5,0.5,work,2020-07-04_14h26.04.152,Tymula Experiment,3.2.3,Win32,60
,,left,4.960000277,1,0,160,145,1,159,-125,-125,0,25,75,0,0,0.5,-0.5,-0.5,-0.5,-0.5,work,2020-07-04_14h26.04.152,Tymula Experiment,3.2.3,Win32,60
,,right,4.427000046,1,0,160,47,1,159,8,8,0,13,13,0.481,74,0.5,-0.5,-0.5,-0.5,-0.5,work,2020-07-04_14h26.04.152,Tymula Experiment,3.2.3,Win32,60
,,right,2.964000225,1,0,160,156,1,159,-125,-125,0,75,25,0,0,-0.5,0.5,0.5,0.5,0.5,work,2020-07-04_14h26.04.152,Tymula Experiment,3.2.3,Win32,60
,,left,2.520000219,1,0,160,137,1,159,125,125,0,25,75,0,0,-0.5,0.5,0.5,0.5,0.5,work,2020-07-04_14h26.04.152,Tymula Experiment,3.2.3,Win32,60
,,right,3.228000164,1,0,160,106,1,159,50,50,0,38,62,0,0,0.5,-0.5,-0.5,-0.5,-0.5,work,2020-07-04_14h26.04.152,Tymula Experiment,3.2.3,Win32,60
,,right,4.710000038,1,0,160,28,1,159,-5,-5,0,75,25,0,0,-0.5,0.5,0.5,0.5,0.5,work,2020-07-04_14h26.04.152,Tymula Experiment,3.2.3,Win32,60
