key_resp_2.keys,key_resp_2.rt,key_resp.keys,key_resp.rt,trials.thisRepN,trials.thisTrialN,trials.thisN,trials.thisIndex,trials.ran,trials.order,Sure,OptionOne,OptionTwo,Risk,Risk2,AmbiguityBarH,Ambiguity,SureXPos,RiskXPos,OptionOneXPos,OptionTwoXPos,RiskX,participant,date,expName,psychopyVersion,OS,frameRate
space,29.31799984,right,11.47099996,1,0,160,14,1,159,5,5,0,25,25,0.325,50,-0.5,0.5,0.5,0.5,0.5,work,2020-06-28_15h08.48.422,Tymula Experiment,3.2.3,Win32,60
,,left,11.74300003,1,0,160,98,1,159,50,50,0,38,62,0,0,-0.5,0.5,0.5,0.5,0.5,work,2020-06-28_15h08.48.422,Tymula Experiment,3.2.3,Win32,60
,,right,14.81999969,1,0,160,73,1,159,20,20,0,25,75,0,0,-0.5,0.5,0.5,0.5,0.5,work,2020-06-28_15h08.48.422,Tymula Experiment,3.2.3,Win32,60
,,right,14.19199991,1,0,160,34,1,159,8,8,0,38,62,0,0,-0.5,0.5,0.5,0.5,0.5,work,2020-06-28_15h08.48.422,Tymula Experiment,3.2.3,Win32,60
,,left,18.60299993,1,0,160,145,1,159,-125,-125,0,25,75,0,0,0.5,-0.5,-0.5,-0.5,-0.5,work,2020-06-28_15h08.48.422,Tymula Experiment,3.2.3,Win32,60
,,left,17.03900003,1,0,160,152,1,159,-125,-125,0,13,87,0,0,0.5,-0.5,-0.5,-0.5,-0.5,work,2020-06-28_15h08.48.422,Tymula Experiment,3.2.3,Win32,60
,,right,14.6789999,1,0,160,94,1,159,-20,-20,0,25,25,0.325,50,-0.5,0.5,0.5,0.5,0.5,work,2020-06-28_15h08.48.422,Tymula Experiment,3.2.3,Win32,60
,,left,19.59699965,1,0,160,141,1,159,125,125,0,38,38,0.156,24,0.5,-0.5,-0.5,-0.5,-0.5,work,2020-06-28_15h08.48.422,Tymula Experiment,3.2.3,Win32,60
,,right,8.807999849,1,0,160,90,1,159,-20,-20,0,38,62,0,0,0.5,-0.5,-0.5,-0.5,-0.5,work,2020-06-28_15h08.48.422,Tymula Experiment,3.2.3,Win32,60
,,left,24.46399975,1,0,160,20,1,159,-5,-5,0,75,25,0,0,-0.5,0.5,0.5,0.5,0.5,work,2020-06-28_15h08.48.422,Tymula Experiment,3.2.3,Win32,60
,,right,8.194000006,1,0,160,29,1,159,-5,-5,0,38,38,0.156,24,0.5,-0.5,-0.5,-0.5,-0.5,work,2020-06-28_15h08.48.422,Tymula Experiment,3.2.3,Win32,60
,,right,13.18300009,1,0,160,30,1,159,-5,-5,0,25,25,0.325,50,-0.5,0.5,0.5,0.5,0.5,work,2020-06-28_15h08.48.422,Tymula Experiment,3.2.3,Win32,60
,,left,11.49699998,1,0,160,35,1,159,8,8,0,50,50,0,0,0.5,-0.5,-0.5,-0.5,-0.5,work,2020-06-28_15h08.48.422,Tymula Experiment,3.2.3,Win32,60
,,right,8.039999962,1,0,160,58,1,159,-8,-8,0,38,62,0,0,0.5,-0.5,-0.5,-0.5,-0.5,work,2020-06-28_15h08.48.422,Tymula Experiment,3.2.3,Win32,60
,,right,10.97099972,1,0,160,25,1,159,-5,-5,0,25,75,0,0,-0.5,0.5,0.5,0.5,0.5,work,2020-06-28_15h08.48.422,Tymula Experiment,3.2.3,Win32,60
,,right,14.61199999,1,0,160,127,1,159,-50,-50,0,13,13,0.481,74,0.5,-0.5,-0.5,-0.5,-0.5,work,2020-06-28_15h08.48.422,Tymula Experiment,3.2.3,Win32,60
,,right,10.48199987,1,0,160,10,1,159,5,5,0,38,62,0,0,0.5,-0.5,-0.5,-0.5,-0.5,work,2020-06-28_15h08.48.422,Tymula Experiment,3.2.3,Win32,60
,,right,9.829999685,1,0,160,84,1,159,-20,-20,0,75,25,0,0,-0.5,0.5,0.5,0.5,0.5,work,2020-06-28_15h08.48.422,Tymula Experiment,3.2.3,Win32,60
,,right,9.134999752,1,0,160,70,1,159,20,20,0,25,25,0.325,50,0.5,-0.5,-0.5,-0.5,-0.5,work,2020-06-28_15h08.48.422,Tymula Experiment,3.2.3,Win32,60
,,right,11.66299987,1,0,160,28,1,159,-5,-5,0,75,25,0,0,-0.5,0.5,0.5,0.5,0.5,work,2020-06-28_15h08.48.422,Tymula Experiment,3.2.3,Win32,60
,,right,9.450999975,1,0,160,93,1,159,-20,-20,0,38,38,0.156,24,0.5,-0.5,-0.5,-0.5,-0.5,work,2020-06-28_15h08.48.422,Tymula Experiment,3.2.3,Win32,60
,,right,4.388000011,1,0,160,129,1,159,125,125,0,25,75,0,0,0.5,-0.5,-0.5,-0.5,-0.5,work,2020-06-28_15h08.48.422,Tymula Experiment,3.2.3,Win32,60
,,right,9.957999706,1,0,160,8,1,159,5,5,0,13,87,0,0,0.5,-0.5,-0.5,-0.5,-0.5,work,2020-06-28_15h08.48.422,Tymula Experiment,3.2.3,Win32,60
,,left,23.98099971,1,0,160,69,1,159,20,20,0,38,38,0.156,24,-0.5,0.5,0.5,0.5,0.5,work,2020-06-28_15h08.48.422,Tymula Experiment,3.2.3,Win32,60
,,right,10.90199995,1,0,160,2,1,159,5,5,0,38,62,0,0,-0.5,0.5,0.5,0.5,0.5,work,2020-06-28_15h08.48.422,Tymula Experiment,3.2.3,Win32,60
,,right,23.02099991,1,0,160,87,1,159,-20,-20,0,13,13,0.481,74,-0.5,0.5,0.5,0.5,0.5,work,2020-06-28_15h08.48.422,Tymula Experiment,3.2.3,Win32,60
,,left,18.97899985,1,0,160,5,1,159,5,5,0,38,38,0.156,24,-0.5,0.5,0.5,0.5,0.5,work,2020-06-28_15h08.48.422,Tymula Experiment,3.2.3,Win32,60
,,left,7.089999914,1,0,160,72,1,159,20,20,0,13,87,0,0,0.5,-0.5,-0.5,-0.5,-0.5,work,2020-06-28_15h08.48.422,Tymula Experiment,3.2.3,Win32,60
,,right,14.11999989,1,0,160,17,1,159,-5,-5,0,25,75,0,0,0.5,-0.5,-0.5,-0.5,-0.5,work,2020-06-28_15h08.48.422,Tymula Experiment,3.2.3,Win32,60
,,left,4.922999859,1,0,160,12,1,159,5,5,0,75,25,0,0,-0.5,0.5,0.5,0.5,0.5,work,2020-06-28_15h08.48.422,Tymula Experiment,3.2.3,Win32,60
,,left,8.57799983,1,0,160,15,1,159,5,5,0,13,13,0.481,74,0.5,-0.5,-0.5,-0.5,-0.5,work,2020-06-28_15h08.48.422,Tymula Experiment,3.2.3,Win32,60
,,left,12.55099988,1,0,160,60,1,159,-8,-8,0,75,25,0,0,-0.5,0.5,0.5,0.5,0.5,work,2020-06-28_15h08.48.422,Tymula Experiment,3.2.3,Win32,60
,,right,6.195999861,1,0,160,147,1,159,-125,-125,0,50,50,0,0,0.5,-0.5,-0.5,-0.5,-0.5,work,2020-06-28_15h08.48.422,Tymula Experiment,3.2.3,Win32,60
,,left,5.85800004,1,0,160,1,1,159,5,5,0,25,75,0,0,0.5,-0.5,-0.5,-0.5,-0.5,work,2020-06-28_15h08.48.422,Tymula Experiment,3.2.3,Win32,60
,,right,16.29099989,1,0,160,82,1,159,-20,-20,0,38,62,0,0,-0.5,0.5,0.5,0.5,0.5,work,2020-06-28_15h08.48.422,Tymula Experiment,3.2.3,Win32,60
,,right,6.403999805,1,0,160,80,1,159,-20,-20,0,13,87,0,0,-0.5,0.5,0.5,0.5,0.5,work,2020-06-28_15h08.48.422,Tymula Experiment,3.2.3,Win32,60
,,right,10.8499999,1,0,160,106,1,159,50,50,0,38,62,0,0,0.5,-0.5,-0.5,-0.5,-0.5,work,2020-06-28_15h08.48.422,Tymula Experiment,3.2.3,Win32,60
,,left,10.49499965,1,0,160,139,1,159,125,125,0,50,50,0,0,-0.5,0.5,0.5,0.5,0.5,work,2020-06-28_15h08.48.422,Tymula Experiment,3.2.3,Win32,60
,,right,9.658999681,1,0,160,62,1,159,-8,-8,0,25,25,0.325,50,-0.5,0.5,0.5,0.5,0.5,work,2020-06-28_15h08.48.422,Tymula Experiment,3.2.3,Win32,60
,,right,5.058999777,1,0,160,51,1,159,-8,-8,0,50,50,0,0,0.5,-0.5,-0.5,-0.5,-0.5,work,2020-06-28_15h08.48.422,Tymula Experiment,3.2.3,Win32,60
,,right,12.62299991,1,0,160,154,1,159,-125,-125,0,38,62,0,0,0.5,-0.5,-0.5,-0.5,-0.5,work,2020-06-28_15h08.48.422,Tymula Experiment,3.2.3,Win32,60
,,right,7.082999945,1,0,160,124,1,159,-50,-50,0,75,25,0,0,-0.5,0.5,0.5,0.5,0.5,work,2020-06-28_15h08.48.422,Tymula Experiment,3.2.3,Win32,60
,,left,7.548999786,1,0,160,13,1,159,5,5,0,38,38,0.156,24,0.5,-0.5,-0.5,-0.5,-0.5,work,2020-06-28_15h08.48.422,Tymula Experiment,3.2.3,Win32,60
,,left,8.662999868,1,0,160,143,1,159,125,125,0,13,13,0.481,74,0.5,-0.5,-0.5,-0.5,-0.5,work,2020-06-28_15h08.48.422,Tymula Experiment,3.2.3,Win32,60
,,left,3.298999786,1,0,160,137,1,159,125,125,0,25,75,0,0,-0.5,0.5,0.5,0.5,0.5,work,2020-06-28_15h08.48.422,Tymula Experiment,3.2.3,Win32,60
,,left,9.145999908,1,0,160,102,1,159,50,50,0,25,25,0.325,50,0.5,-0.5,-0.5,-0.5,-0.5,work,2020-06-28_15h08.48.422,Tymula Experiment,3.2.3,Win32,60
,,left,3.457000017,1,0,160,42,1,159,8,8,0,38,62,0,0,0.5,-0.5,-0.5,-0.5,-0.5,work,2020-06-28_15h08.48.422,Tymula Experiment,3.2.3,Win32,60
,,right,2.095999956,1,0,160,91,1,159,-20,-20,0,50,50,0,0,-0.5,0.5,0.5,0.5,0.5,work,2020-06-28_15h08.48.422,Tymula Experiment,3.2.3,Win32,60
,,left,4.448999882,1,0,160,78,1,159,20,20,0,25,25,0.325,50,-0.5,0.5,0.5,0.5,0.5,work,2020-06-28_15h08.48.422,Tymula Experiment,3.2.3,Win32,60
,,right,9.335000038,1,0,160,88,1,159,-20,-20,0,13,87,0,0,0.5,-0.5,-0.5,-0.5,-0.5,work,2020-06-28_15h08.48.422,Tymula Experiment,3.2.3,Win32,60
,,right,6.602999926,1,0,160,63,1,159,-8,-8,0,13,13,0.481,74,0.5,-0.5,-0.5,-0.5,-0.5,work,2020-06-28_15h08.48.422,Tymula Experiment,3.2.3,Win32,60
,,left,12.42199993,1,0,160,76,1,159,20,20,0,75,25,0,0,-0.5,0.5,0.5,0.5,0.5,work,2020-06-28_15h08.48.422,Tymula Experiment,3.2.3,Win32,60
,,right,10.04399991,1,0,160,113,1,159,-50,-50,0,25,75,0,0,0.5,-0.5,-0.5,-0.5,-0.5,work,2020-06-28_15h08.48.422,Tymula Experiment,3.2.3,Win32,60
,,left,5.371999741,1,0,160,99,1,159,50,50,0,50,50,0,0,0.5,-0.5,-0.5,-0.5,-0.5,work,2020-06-28_15h08.48.422,Tymula Experiment,3.2.3,Win32,60
,,right,15.99699998,1,0,160,157,1,159,-125,-125,0,38,38,0.156,24,0.5,-0.5,-0.5,-0.5,-0.5,work,2020-06-28_15h08.48.422,Tymula Experiment,3.2.3,Win32,60
,,left,1.853999853,1,0,160,138,1,159,125,125,0,38,62,0,0,0.5,-0.5,-0.5,-0.5,-0.5,work,2020-06-28_15h08.48.422,Tymula Experiment,3.2.3,Win32,60
,,left,6.109999895,1,0,160,111,1,159,50,50,0,13,13,0.481,74,0.5,-0.5,-0.5,-0.5,-0.5,work,2020-06-28_15h08.48.422,Tymula Experiment,3.2.3,Win32,60
,,left,6.071999788,1,0,160,103,1,159,50,50,0,13,13,0.481,74,-0.5,0.5,0.5,0.5,0.5,work,2020-06-28_15h08.48.422,Tymula Experiment,3.2.3,Win32,60
,,left,5.832999945,1,0,160,130,1,159,125,125,0,38,62,0,0,-0.5,0.5,0.5,0.5,0.5,work,2020-06-28_15h08.48.422,Tymula Experiment,3.2.3,Win32,60
,,left,4.865999699,1,0,160,41,1,159,8,8,0,25,75,0,0,-0.5,0.5,0.5,0.5,0.5,work,2020-06-28_15h08.48.422,Tymula Experiment,3.2.3,Win32,60
,,right,6.002999783,1,0,160,118,1,159,-50,-50,0,25,25,0.325,50,0.5,-0.5,-0.5,-0.5,-0.5,work,2020-06-28_15h08.48.422,Tymula Experiment,3.2.3,Win32,60
,,left,8.999999762,1,0,160,133,1,159,125,125,0,38,38,0.156,24,-0.5,0.5,0.5,0.5,0.5,work,2020-06-28_15h08.48.422,Tymula Experiment,3.2.3,Win32,60
,,right,6.622999907,1,0,160,125,1,159,-50,-50,0,38,38,0.156,24,0.5,-0.5,-0.5,-0.5,-0.5,work,2020-06-28_15h08.48.422,Tymula Experiment,3.2.3,Win32,60
,,right,8.377999783,1,0,160,81,1,159,-20,-20,0,25,75,0,0,0.5,-0.5,-0.5,-0.5,-0.5,work,2020-06-28_15h08.48.422,Tymula Experiment,3.2.3,Win32,60
,,left,5.619999886,1,0,160,131,1,159,125,125,0,50,50,0,0,0.5,-0.5,-0.5,-0.5,-0.5,work,2020-06-28_15h08.48.422,Tymula Experiment,3.2.3,Win32,60
,,left,6.248999834,1,0,160,38,1,159,8,8,0,25,25,0.325,50,0.5,-0.5,-0.5,-0.5,-0.5,work,2020-06-28_15h08.48.422,Tymula Experiment,3.2.3,Win32,60
,,right,7.811999798,1,0,160,57,1,159,-8,-8,0,25,75,0,0,-0.5,0.5,0.5,0.5,0.5,work,2020-06-28_15h08.48.422,Tymula Experiment,3.2.3,Win32,60
,,right,7.180000067,1,0,160,53,1,159,-8,-8,0,38,38,0.156,24,-0.5,0.5,0.5,0.5,0.5,work,2020-06-28_15h08.48.422,Tymula Experiment,3.2.3,Win32,60
,,left,9.9599998,1,0,160,40,1,159,8,8,0,13,87,0,0,0.5,-0.5,-0.5,-0.5,-0.5,work,2020-06-28_15h08.48.422,Tymula Experiment,3.2.3,Win32,60
,,left,22.72599983,1,0,160,74,1,159,20,20,0,38,62,0,0,0.5,-0.5,-0.5,-0.5,-0.5,work,2020-06-28_15h08.48.422,Tymula Experiment,3.2.3,Win32,60
,,left,12.39499998,1,0,160,32,1,159,8,8,0,13,87,0,0,-0.5,0.5,0.5,0.5,0.5,work,2020-06-28_15h08.48.422,Tymula Experiment,3.2.3,Win32,60
,,right,8.763000011,1,0,160,126,1,159,-50,-50,0,25,25,0.325,50,-0.5,0.5,0.5,0.5,0.5,work,2020-06-28_15h08.48.422,Tymula Experiment,3.2.3,Win32,60
,,left,22.42599988,1,0,160,100,1,159,50,50,0,75,25,0,0,-0.5,0.5,0.5,0.5,0.5,work,2020-06-28_15h08.48.422,Tymula Experiment,3.2.3,Win32,60
,,left,12.74199986,1,0,160,97,1,159,50,50,0,25,75,0,0,0.5,-0.5,-0.5,-0.5,-0.5,work,2020-06-28_15h08.48.422,Tymula Experiment,3.2.3,Win32,60
,,right,8.429999828,1,0,160,153,1,159,-125,-125,0,25,75,0,0,-0.5,0.5,0.5,0.5,0.5,work,2020-06-28_15h08.48.422,Tymula Experiment,3.2.3,Win32,60
,,left,14.05199981,1,0,160,77,1,159,20,20,0,38,38,0.156,24,0.5,-0.5,-0.5,-0.5,-0.5,work,2020-06-28_15h08.48.422,Tymula Experiment,3.2.3,Win32,60
,,left,23.96700001,1,0,160,101,1,159,50,50,0,38,38,0.156,24,-0.5,0.5,0.5,0.5,0.5,work,2020-06-28_15h08.48.422,Tymula Experiment,3.2.3,Win32,60
,,left,8.487999916,1,0,160,68,1,159,20,20,0,75,25,0,0,-0.5,0.5,0.5,0.5,0.5,work,2020-06-28_15h08.48.422,Tymula Experiment,3.2.3,Win32,60
,,right,13.26599979,1,0,160,61,1,159,-8,-8,0,38,38,0.156,24,0.5,-0.5,-0.5,-0.5,-0.5,work,2020-06-28_15h08.48.422,Tymula Experiment,3.2.3,Win32,60
,,left,7.954999685,1,0,160,65,1,159,20,20,0,25,75,0,0,0.5,-0.5,-0.5,-0.5,-0.5,work,2020-06-28_15h08.48.422,Tymula Experiment,3.2.3,Win32,60
,,left,47.20899963,1,0,160,6,1,159,5,5,0,25,25,0.325,50,0.5,-0.5,-0.5,-0.5,-0.5,work,2020-06-28_15h08.48.422,Tymula Experiment,3.2.3,Win32,60
,,left,104.4449999,1,0,160,120,1,159,-50,-50,0,13,87,0,0,0.5,-0.5,-0.5,-0.5,-0.5,work,2020-06-28_15h08.48.422,Tymula Experiment,3.2.3,Win32,60
,,left,43.92599988,1,0,160,155,1,159,-125,-125,0,50,50,0,0,-0.5,0.5,0.5,0.5,0.5,work,2020-06-28_15h08.48.422,Tymula Experiment,3.2.3,Win32,60
,,left,102.6929998,1,0,160,79,1,159,20,20,0,13,13,0.481,74,0.5,-0.5,-0.5,-0.5,-0.5,work,2020-06-28_15h08.48.422,Tymula Experiment,3.2.3,Win32,60
,,right,39.15299988,1,0,160,22,1,159,-5,-5,0,25,25,0.325,50,0.5,-0.5,-0.5,-0.5,-0.5,work,2020-06-28_15h08.48.422,Tymula Experiment,3.2.3,Win32,60
,,right,30.28999996,1,0,160,26,1,159,-5,-5,0,38,62,0,0,0.5,-0.5,-0.5,-0.5,-0.5,work,2020-06-28_15h08.48.422,Tymula Experiment,3.2.3,Win32,60
,,right,18.39199972,1,0,160,144,1,159,-125,-125,0,13,87,0,0,-0.5,0.5,0.5,0.5,0.5,work,2020-06-28_15h08.48.422,Tymula Experiment,3.2.3,Win32,60
,,right,8.991999865,1,0,160,52,1,159,-8,-8,0,75,25,0,0,-0.5,0.5,0.5,0.5,0.5,work,2020-06-28_15h08.48.422,Tymula Experiment,3.2.3,Win32,60
,,right,9.080999851,1,0,160,92,1,159,-20,-20,0,75,25,0,0,-0.5,0.5,0.5,0.5,0.5,work,2020-06-28_15h08.48.422,Tymula Experiment,3.2.3,Win32,60
,,left,29.52799988,1,0,160,43,1,159,8,8,0,50,50,0,0,-0.5,0.5,0.5,0.5,0.5,work,2020-06-28_15h08.48.422,Tymula Experiment,3.2.3,Win32,60
,,left,16.18299985,1,0,160,108,1,159,50,50,0,75,25,0,0,-0.5,0.5,0.5,0.5,0.5,work,2020-06-28_15h08.48.422,Tymula Experiment,3.2.3,Win32,60
,,left,35.60500002,1,0,160,47,1,159,8,8,0,13,13,0.481,74,0.5,-0.5,-0.5,-0.5,-0.5,work,2020-06-28_15h08.48.422,Tymula Experiment,3.2.3,Win32,60
,,right,34.61699986,1,0,160,18,1,159,-5,-5,0,38,62,0,0,-0.5,0.5,0.5,0.5,0.5,work,2020-06-28_15h08.48.422,Tymula Experiment,3.2.3,Win32,60
,,right,11.13199997,1,0,160,114,1,159,-50,-50,0,38,62,0,0,-0.5,0.5,0.5,0.5,0.5,work,2020-06-28_15h08.48.422,Tymula Experiment,3.2.3,Win32,60
,,right,28.48599982,1,0,160,121,1,159,-50,-50,0,25,75,0,0,-0.5,0.5,0.5,0.5,0.5,work,2020-06-28_15h08.48.422,Tymula Experiment,3.2.3,Win32,60
,,left,24.43299985,1,0,160,134,1,159,125,125,0,25,25,0.325,50,0.5,-0.5,-0.5,-0.5,-0.5,work,2020-06-28_15h08.48.422,Tymula Experiment,3.2.3,Win32,60
,,right,25.66899991,1,0,160,146,1,159,-125,-125,0,38,62,0,0,-0.5,0.5,0.5,0.5,0.5,work,2020-06-28_15h08.48.422,Tymula Experiment,3.2.3,Win32,60
,,right,7.450999737,1,0,160,54,1,159,-8,-8,0,25,25,0.325,50,0.5,-0.5,-0.5,-0.5,-0.5,work,2020-06-28_15h08.48.422,Tymula Experiment,3.2.3,Win32,60
,,left,13.7349999,1,0,160,136,1,159,125,125,0,13,87,0,0,0.5,-0.5,-0.5,-0.5,-0.5,work,2020-06-28_15h08.48.422,Tymula Experiment,3.2.3,Win32,60
,,right,5.516000032,1,0,160,159,1,159,-125,-125,0,13,13,0.481,74,0.5,-0.5,-0.5,-0.5,-0.5,work,2020-06-28_15h08.48.422,Tymula Experiment,3.2.3,Win32,60
,,left,5.503999949,1,0,160,135,1,159,125,125,0,13,13,0.481,74,-0.5,0.5,0.5,0.5,0.5,work,2020-06-28_15h08.48.422,Tymula Experiment,3.2.3,Win32,60
,,left,8.04399991,1,0,160,107,1,159,50,50,0,50,50,0,0,-0.5,0.5,0.5,0.5,0.5,work,2020-06-28_15h08.48.422,Tymula Experiment,3.2.3,Win32,60
,,right,6.911999941,1,0,160,16,1,159,-5,-5,0,13,87,0,0,-0.5,0.5,0.5,0.5,0.5,work,2020-06-28_15h08.48.422,Tymula Experiment,3.2.3,Win32,60
,,right,17.81900001,1,0,160,122,1,159,-50,-50,0,38,62,0,0,0.5,-0.5,-0.5,-0.5,-0.5,work,2020-06-28_15h08.48.422,Tymula Experiment,3.2.3,Win32,60
,,left,18.88199997,1,0,160,45,1,159,8,8,0,38,38,0.156,24,0.5,-0.5,-0.5,-0.5,-0.5,work,2020-06-28_15h08.48.422,Tymula Experiment,3.2.3,Win32,60
,,right,21.3119998,1,0,160,59,1,159,-8,-8,0,50,50,0,0,-0.5,0.5,0.5,0.5,0.5,work,2020-06-28_15h08.48.422,Tymula Experiment,3.2.3,Win32,60
,,left,29.14399981,1,0,160,39,1,159,8,8,0,13,13,0.481,74,-0.5,0.5,0.5,0.5,0.5,work,2020-06-28_15h08.48.422,Tymula Experiment,3.2.3,Win32,60
,,left,14.93399978,1,0,160,140,1,159,125,125,0,75,25,0,0,-0.5,0.5,0.5,0.5,0.5,work,2020-06-28_15h08.48.422,Tymula Experiment,3.2.3,Win32,60
,,right,14.02999997,1,0,160,116,1,159,-50,-50,0,75,25,0,0,-0.5,0.5,0.5,0.5,0.5,work,2020-06-28_15h08.48.422,Tymula Experiment,3.2.3,Win32,60
,,right,15.96000004,1,0,160,112,1,159,-50,-50,0,13,87,0,0,-0.5,0.5,0.5,0.5,0.5,work,2020-06-28_15h08.48.422,Tymula Experiment,3.2.3,Win32,60
,,left,7.597999811,1,0,160,11,1,159,5,5,0,50,50,0,0,-0.5,0.5,0.5,0.5,0.5,work,2020-06-28_15h08.48.422,Tymula Experiment,3.2.3,Win32,60
,,right,6.669999838,1,0,160,119,1,159,-50,-50,0,13,13,0.481,74,-0.5,0.5,0.5,0.5,0.5,work,2020-06-28_15h08.48.422,Tymula Experiment,3.2.3,Win32,60
,,right,3.878999949,1,0,160,55,1,159,-8,-8,0,13,13,0.481,74,-0.5,0.5,0.5,0.5,0.5,work,2020-06-28_15h08.48.422,Tymula Experiment,3.2.3,Win32,60
,,left,3.506999969,1,0,160,142,1,159,125,125,0,25,25,0.325,50,-0.5,0.5,0.5,0.5,0.5,work,2020-06-28_15h08.48.422,Tymula Experiment,3.2.3,Win32,60
,,right,6.449999809,1,0,160,49,1,159,-8,-8,0,25,75,0,0,0.5,-0.5,-0.5,-0.5,-0.5,work,2020-06-28_15h08.48.422,Tymula Experiment,3.2.3,Win32,60
,,right,2.483999968,1,0,160,83,1,159,-20,-20,0,50,50,0,0,0.5,-0.5,-0.5,-0.5,-0.5,work,2020-06-28_15h08.48.422,Tymula Experiment,3.2.3,Win32,60
,,left,3.05099988,1,0,160,4,1,159,5,5,0,75,25,0,0,-0.5,0.5,0.5,0.5,0.5,work,2020-06-28_15h08.48.422,Tymula Experiment,3.2.3,Win32,60
,,left,1.953999996,1,0,160,44,1,159,8,8,0,75,25,0,0,-0.5,0.5,0.5,0.5,0.5,work,2020-06-28_15h08.48.422,Tymula Experiment,3.2.3,Win32,60
,,left,2.165999889,1,0,160,64,1,159,20,20,0,13,87,0,0,-0.5,0.5,0.5,0.5,0.5,work,2020-06-28_15h08.48.422,Tymula Experiment,3.2.3,Win32,60
,,left,6.200999975,1,0,160,33,1,159,8,8,0,25,75,0,0,0.5,-0.5,-0.5,-0.5,-0.5,work,2020-06-28_15h08.48.422,Tymula Experiment,3.2.3,Win32,60
,,left,2.454999685,1,0,160,66,1,159,20,20,0,38,62,0,0,-0.5,0.5,0.5,0.5,0.5,work,2020-06-28_15h08.48.422,Tymula Experiment,3.2.3,Win32,60
,,right,2.481999874,1,0,160,86,1,159,-20,-20,0,25,25,0.325,50,0.5,-0.5,-0.5,-0.5,-0.5,work,2020-06-28_15h08.48.422,Tymula Experiment,3.2.3,Win32,60
,,right,1.19299984,1,0,160,50,1,159,-8,-8,0,38,62,0,0,-0.5,0.5,0.5,0.5,0.5,work,2020-06-28_15h08.48.422,Tymula Experiment,3.2.3,Win32,60
,,left,1.480999947,1,0,160,104,1,159,50,50,0,13,87,0,0,0.5,-0.5,-0.5,-0.5,-0.5,work,2020-06-28_15h08.48.422,Tymula Experiment,3.2.3,Win32,60
,,left,1.721999884,1,0,160,105,1,159,50,50,0,25,75,0,0,-0.5,0.5,0.5,0.5,0.5,work,2020-06-28_15h08.48.422,Tymula Experiment,3.2.3,Win32,60
,,left,1.394999981,1,0,160,128,1,159,125,125,0,13,87,0,0,-0.5,0.5,0.5,0.5,0.5,work,2020-06-28_15h08.48.422,Tymula Experiment,3.2.3,Win32,60
,,left,1.081999779,1,0,160,110,1,159,50,50,0,25,25,0.325,50,-0.5,0.5,0.5,0.5,0.5,work,2020-06-28_15h08.48.422,Tymula Experiment,3.2.3,Win32,60
,,left,1.796999931,1,0,160,71,1,159,20,20,0,13,13,0.481,74,-0.5,0.5,0.5,0.5,0.5,work,2020-06-28_15h08.48.422,Tymula Experiment,3.2.3,Win32,60
,,left,1.968999863,1,0,160,67,1,159,20,20,0,50,50,0,0,0.5,-0.5,-0.5,-0.5,-0.5,work,2020-06-28_15h08.48.422,Tymula Experiment,3.2.3,Win32,60
,,right,1.064999819,1,0,160,56,1,159,-8,-8,0,13,87,0,0,0.5,-0.5,-0.5,-0.5,-0.5,work,2020-06-28_15h08.48.422,Tymula Experiment,3.2.3,Win32,60
,,right,0.845999956,1,0,160,31,1,159,-5,-5,0,13,13,0.481,74,0.5,-0.5,-0.5,-0.5,-0.5,work,2020-06-28_15h08.48.422,Tymula Experiment,3.2.3,Win32,60
,,left,0.998999834,1,0,160,7,1,159,5,5,0,13,13,0.481,74,-0.5,0.5,0.5,0.5,0.5,work,2020-06-28_15h08.48.422,Tymula Experiment,3.2.3,Win32,60
,,left,1.316999912,1,0,160,46,1,159,8,8,0,25,25,0.325,50,-0.5,0.5,0.5,0.5,0.5,work,2020-06-28_15h08.48.422,Tymula Experiment,3.2.3,Win32,60
,,left,1.212999821,1,0,160,36,1,159,8,8,0,75,25,0,0,-0.5,0.5,0.5,0.5,0.5,work,2020-06-28_15h08.48.422,Tymula Experiment,3.2.3,Win32,60
,,right,0.898999929,1,0,160,148,1,159,-125,-125,0,75,25,0,0,-0.5,0.5,0.5,0.5,0.5,work,2020-06-28_15h08.48.422,Tymula Experiment,3.2.3,Win32,60
,,left,0.981999874,1,0,160,9,1,159,5,5,0,25,75,0,0,-0.5,0.5,0.5,0.5,0.5,work,2020-06-28_15h08.48.422,Tymula Experiment,3.2.3,Win32,60
,,right,0.734999895,1,0,160,123,1,159,-50,-50,0,50,50,0,0,-0.5,0.5,0.5,0.5,0.5,work,2020-06-28_15h08.48.422,Tymula Experiment,3.2.3,Win32,60
,,left,0.850999832,1,0,160,96,1,159,50,50,0,13,87,0,0,-0.5,0.5,0.5,0.5,0.5,work,2020-06-28_15h08.48.422,Tymula Experiment,3.2.3,Win32,60
,,right,0.727999926,1,0,160,117,1,159,-50,-50,0,38,38,0.156,24,-0.5,0.5,0.5,0.5,0.5,work,2020-06-28_15h08.48.422,Tymula Experiment,3.2.3,Win32,60
,,left,1.01699996,1,0,160,109,1,159,50,50,0,38,38,0.156,24,0.5,-0.5,-0.5,-0.5,-0.5,work,2020-06-28_15h08.48.422,Tymula Experiment,3.2.3,Win32,60
,,right,0.852999926,1,0,160,48,1,159,-8,-8,0,13,87,0,0,-0.5,0.5,0.5,0.5,0.5,work,2020-06-28_15h08.48.422,Tymula Experiment,3.2.3,Win32,60
,,right,1.66899991,1,0,160,115,1,159,-50,-50,0,50,50,0,0,0.5,-0.5,-0.5,-0.5,-0.5,work,2020-06-28_15h08.48.422,Tymula Experiment,3.2.3,Win32,60
,,right,0.932999849,1,0,160,95,1,159,-20,-20,0,13,13,0.481,74,0.5,-0.5,-0.5,-0.5,-0.5,work,2020-06-28_15h08.48.422,Tymula Experiment,3.2.3,Win32,60
,,right,1.047999859,1,0,160,156,1,159,-125,-125,0,75,25,0,0,-0.5,0.5,0.5,0.5,0.5,work,2020-06-28_15h08.48.422,Tymula Experiment,3.2.3,Win32,60
,,right,1.068999767,1,0,160,158,1,159,-125,-125,0,25,25,0.325,50,-0.5,0.5,0.5,0.5,0.5,work,2020-06-28_15h08.48.422,Tymula Experiment,3.2.3,Win32,60
,,left,0.848999739,1,0,160,3,1,159,5,5,0,50,50,0,0,0.5,-0.5,-0.5,-0.5,-0.5,work,2020-06-28_15h08.48.422,Tymula Experiment,3.2.3,Win32,60
,,right,1.478999853,1,0,160,23,1,159,-5,-5,0,13,13,0.481,74,-0.5,0.5,0.5,0.5,0.5,work,2020-06-28_15h08.48.422,Tymula Experiment,3.2.3,Win32,60
,,right,0.887999773,1,0,160,89,1,159,-20,-20,0,25,75,0,0,-0.5,0.5,0.5,0.5,0.5,work,2020-06-28_15h08.48.422,Tymula Experiment,3.2.3,Win32,60
,,left,1.280999899,1,0,160,0,1,159,5,5,0,13,87,0,0,-0.5,0.5,0.5,0.5,0.5,work,2020-06-28_15h08.48.422,Tymula Experiment,3.2.3,Win32,60
,,right,0.78399992,1,0,160,151,1,159,-125,-125,0,13,13,0.481,74,-0.5,0.5,0.5,0.5,0.5,work,2020-06-28_15h08.48.422,Tymula Experiment,3.2.3,Win32,60
,,right,0.700999975,1,0,160,27,1,159,-5,-5,0,50,50,0,0,-0.5,0.5,0.5,0.5,0.5,work,2020-06-28_15h08.48.422,Tymula Experiment,3.2.3,Win32,60
,,right,2.102999687,1,0,160,21,1,159,-5,-5,0,38,38,0.156,24,-0.5,0.5,0.5,0.5,0.5,work,2020-06-28_15h08.48.422,Tymula Experiment,3.2.3,Win32,60
,,right,1.085999727,1,0,160,150,1,159,-125,-125,0,25,25,0.325,50,0.5,-0.5,-0.5,-0.5,-0.5,work,2020-06-28_15h08.48.422,Tymula Experiment,3.2.3,Win32,60
,,right,1.866999865,1,0,160,149,1,159,-125,-125,0,38,38,0.156,24,-0.5,0.5,0.5,0.5,0.5,work,2020-06-28_15h08.48.422,Tymula Experiment,3.2.3,Win32,60
,,left,1.430999756,1,0,160,132,1,159,125,125,0,75,25,0,0,-0.5,0.5,0.5,0.5,0.5,work,2020-06-28_15h08.48.422,Tymula Experiment,3.2.3,Win32,60
,,right,22.86399984,1,0,160,24,1,159,-5,-5,0,13,87,0,0,0.5,-0.5,-0.5,-0.5,-0.5,work,2020-06-28_15h08.48.422,Tymula Experiment,3.2.3,Win32,60
,,left,1.126999855,1,0,160,75,1,159,20,20,0,50,50,0,0,-0.5,0.5,0.5,0.5,0.5,work,2020-06-28_15h08.48.422,Tymula Experiment,3.2.3,Win32,60
,,right,1.345999956,1,0,160,19,1,159,-5,-5,0,50,50,0,0,0.5,-0.5,-0.5,-0.5,-0.5,work,2020-06-28_15h08.48.422,Tymula Experiment,3.2.3,Win32,60
,,left,1.009000063,1,0,160,37,1,159,8,8,0,38,38,0.156,24,-0.5,0.5,0.5,0.5,0.5,work,2020-06-28_15h08.48.422,Tymula Experiment,3.2.3,Win32,60
,,right,0.771999836,1,0,160,85,1,159,-20,-20,0,38,38,0.156,24,-0.5,0.5,0.5,0.5,0.5,work,2020-06-28_15h08.48.422,Tymula Experiment,3.2.3,Win32,60
